Folder: Xray-Project/Dynamic XAS Energy analyzed data/ESweep_0_5 Hz/Same Eo/Normalized Spectra (part 2)

File: Ir0_5Hz_ReaddMean_VPhsCorrect_37_-250_mV_.csv.nor
# XDI/1.0 Athena/0.9.26
# Element.edge:                  K
# Element.symbol:                Co
# Column.1:                      energy eV
# Column.2:                      norm
# Column.3:                      nbkg
# Column.4:                      flat
# Column.5:                      fbkg
# Column.6:                      nder
# Column.7:                      nsec
# Athena.e0:                     7721.54
# Athena.eshift:                 0
# Athena.rbkg:                   1.0
# Athena.importance:             1
# Athena.standard:               None
# Athena.bkg_kweight:            3
# Athena.edge_step:              1.19258
# Athena.fixed_step:             no
# Athena.pre_edge_range:         -82.964 -19.904
# Athena.pre_edge_line:          -0.000159 + 0.000214679 * E
# Athena.normalization_range:    45 125.256
# Athena.post_edge_polynomial:   15.5531 - 0.00164514 * E + 0 * E^2 + 0 * E^3
# Athena.spline_range_energy:    0.000 125.180
# Athena.clamps:                 0 24
# Athena.spline_range_k:         0.000 5.732
# Athena.kweight:                2
# Athena.window:                 hanning
# Athena.phase_correction:       no
# Athena.k_range:                .4 5.35
# Athena.dk:                     .5
# Athena.r_range:                .4 5.1
# Athena.dr:                     .5
# Athena.window:                 hanning
# Athena.plot_multiplier:        1
# Athena.y_offset:               0.2
# ///
#------------------------
#   e         norm        nbkg        flat        fbkg        nder        nsec
  7600.07      -0.212418      -0.0124181  -0.212418      -0.212418       0.0121705  -0.000507915
  7624.56      -0.0458979   0.154102      -0.0458979  -0.0458979   0.0028573  -0.000211718
  7649.7      -0.0163103   0.18369      -0.0163103  -0.0163103  -0.000294956   0.000105756
  7674.73       0.0793335   0.279334       0.0793335   0.0793335   0.000171876  -0.000290407
  7700.01      -0.00857868   0.191421      -0.00857868  -0.00857868   0.000389267   0.000953519
  7700.72      -0.00221744   0.197783      -0.00221744  -0.00221744   0.00378096  -0.0232929
  7701.43      -0.00717734   0.192823      -0.00717734  -0.00717734   0.0016076   0.0206659
  7702.15      -0.00134648   0.198654      -0.00134648  -0.00134648  -0.00253094  -0.0204687
  7702.88      -0.00611684   0.193883      -0.00611684  -0.00611684  -0.00356538   0.00772361
  7703.6      -0.00681897   0.193181      -0.00681897  -0.00681897   0.00222999   0.012348
  7704.32      -0.00108828   0.198912      -0.00108828  -0.00108828   0.00561549  -0.0133813
  7705.02      -0.00234654   0.197653      -0.00234654  -0.00234654  -0.00385954   0.0016699
  7705.75      -0.00282151   0.197178      -0.00282151  -0.00282151   0.0161798   0.0364721
  7706.47       0.0159574   0.215957       0.0159574   0.0159574   0.0297432   0.00935106
  7707.2       0.0396888   0.239689       0.0396888   0.0396888   0.0271564  -0.0215278
  7707.91       0.0519864   0.251986       0.0519864   0.0519864   0.00329506  -0.021934
  7708.65       0.0528969   0.252897       0.0528969   0.0528969  -0.00283148  -0.0125571
  7709.29       0.0480221   0.248022       0.0480221   0.0480221   0.00293264   0.024027
  7709.9       0.0524253   0.252425       0.0524253   0.0524253  -0.00386814  -0.0329553
  7710.51       0.0444307   0.244431       0.0444307   0.0444307  -0.00775467   0.0200496
  7711.11       0.0439471   0.243947       0.0439471   0.0439471   0.011189   0.0173543
  7711.73       0.0497943   0.249794       0.0497943   0.0497943  -0.00281102  -0.0168924
  7712.33       0.0492605   0.24926       0.0492605   0.0492605  -0.00658136   0.0126118
  7712.95       0.0535249   0.253525       0.0535249   0.0535249   0.0209317   0.0352847
  7713.54       0.0697478   0.269748       0.0697478   0.0697478   0.0468919   0.0609449
  7714.16       0.110489       0.310489       0.110489       0.110489       0.0751299   0.00182684
  7714.78       0.151467       0.351467       0.151467       0.151467       0.0511356  -0.047034
  7715.39       0.174593       0.374593       0.174593       0.174593       0.0468732   0.0188766
  7715.97       0.203404       0.403404       0.203404       0.203404       0.0298921  -0.0727753
  7716.26       0.2077       0.4077       0.2077       0.2077       0.0273374   0.186436
  7716.5       0.221867       0.421867       0.221867       0.221867       0.0707212   0.00509457
  7716.73       0.235755       0.435755       0.235755       0.235755       0.054319  -0.00357871
  7716.99       0.250664       0.450664       0.250664       0.250664       0.0429398  -0.0898232
  7717.23       0.259839       0.459839       0.259839       0.259839       0.0625398   0.215907
  7717.46       0.280725       0.480725       0.280725       0.280725       0.0604389  -0.1931
  7717.71       0.291756       0.491756       0.291756       0.291756       0.0989401   0.215622
  7717.96       0.316352       0.516352       0.316352       0.316352       0.0709953   0.0661335
  7718.21       0.344329       0.544329       0.344329       0.344329       0.122931      -0.168508
  7718.44       0.360996       0.560996       0.360996       0.360996       0.0726434   0.126699
  7718.69       0.386692       0.586692       0.386692       0.386692       0.0908843  -0.0014206
  7718.94       0.41139       0.61139       0.41139       0.41139       0.137099       0.25858
  7719.17       0.450027       0.650027       0.450027       0.450027       0.128547      -0.261747
  7719.42       0.475967       0.675967       0.475967       0.475967       0.163325       0.204378
  7719.67       0.513155       0.713155       0.513155       0.513155       0.128238       0.119013
  7719.9       0.555756       0.755756       0.555756       0.555756       0.184581      -0.0476426
  7720.15       0.598654       0.798654       0.598654       0.598654       0.220366       0.0926727
  7720.4       0.645104       0.845104       0.645104       0.645104       0.146043      -0.0885692
  7720.65       0.68721       0.88721       0.68721       0.68721       0.184828       0.29061
  7720.88       0.743538       0.943538       0.743538       0.743538       0.215029      -0.242804
  7721.13       0.78971       0.98971       0.78971       0.78971       0.206018       0.0572703
  7721.38       0.83771        1.03771       0.83771       0.83771       0.219253       0.245047
  7721.61       0.897676        2.23808       0.897788        2.03819       0.227161      -0.16146
  7721.86       0.952168        2.2059       0.95267        2.0064       0.249517      -0.0761887
  7722.1        1.00068        2.17529        1.00156        1.97617       0.144517      -0.0342793
  7722.36        1.04939        2.14372        1.05067        1.94499       0.209998      -0.0812506
  7722.59        1.08964        2.11502        1.09128        1.91666       0.142696      -0.316826
  7722.85        1.11333        2.08466        1.11536        1.8867       0.103373       0.276553
  7723.05        1.14579        2.06047        1.14814        1.86283       0.152244      -0.186143
  7723.41        1.18515        2.01944        1.18806        1.82235       0.103681       0.0159285
  7723.8        1.23128        1.97516        1.2348        1.77868       0.0933062  -0.158252
  7724.2        1.25287        1.93175        1.25702        1.73589       0.023765  -0.109118
  7724.59        1.25723        1.89006        1.26199        1.69482       0.00892356  -0.0522175
  7725.01        1.25329        1.84742        1.2587        1.65283      -0.031214  -0.0305429
  7726.51        1.19633        1.70514        1.20408        1.51289      -0.0423677   0.00130553
  7728.07        1.1403        1.57518        1.15048        1.38535      -0.035108   0.00452118
  7729.59        1.09598        1.46458        1.10854        1.27714      -0.0104011   0.0158586
  7731.15        1.0884        1.36785        1.10338        1.18284      -0.00354137   0.00351558
  7732.68        1.08932        1.28701        1.10669        1.10438      -0.00843213  -0.0055194
  7734.21        1.07726        1.21935        1.09703        1.03912       8.2299e-05  -0.00257329
  7735.77        1.05884        1.16309        1.08104       0.985288      -0.014186   0.00778945
  7737.31        1.05941        1.119        1.084       0.943591      -0.00564076  -0.0138845
  7738.84        1.02718        1.08488        1.05417       0.911863      -0.0176333   0.00670654
  7740.39        1.01069        1.05952        1.04008       0.888913      -0.0155619  -0.00739494
  7741.95       0.976117        1.04184        1.00795       0.873675      -0.0235188   0.000196863
  7746.97       0.868461        1.0258       0.908117       0.865458      -0.0165187   0.00185647
  7751.94       0.808004        1.04166       0.855405       0.889063      -0.00987154   0.000948784
  7756.95       0.770759        1.0592       0.825979       0.914424      -0.000715497   0.00258301
  7761.95       0.797859        1.0733       0.860873       0.936309       0.00756768   0.00110132
  7766.97       0.85291        1.08424       0.92375       0.955078       0.0107067  -4.68439e-05
  7771.99       0.90683        1.09218       0.985501       0.970853       0.010731  -0.00120782
  7777       0.930207        1.09731        1.01669       0.983794       0.00174775  -0.000591131
  7784.15       0.937901        1.1002        1.03554       0.997835      -0.00391861  -0.000571089
  7791.28       0.916525        1.09841        1.02529        1.00718       0.000888122   0.000189981
  7798.44       0.904829        1.09254        1.02475        1.01246      -0.00347689  -0.000277296
  7805.61       0.878857        1.08314        1.00997        1.01425      -0.00319126   0.00017292
  7812.81       0.861768        1.07078        1.0041        1.01311      -0.000139518  -4.72995e-05
  7819.99       0.842263        1.05611       0.995801        1.00965      -0.00347323   5.81238e-05
  7827.22       0.825674        1.03962       0.990486        1.00443      -0.00448129   2.92955e-05
  7834.44       0.810641        1.02203       0.986704       0.998096       0.000911567  -7.82418e-05
  7841.69       0.79142        1.00384       0.978792       0.991209      -0.00177552   0.000759926
  7845.32       0.801826       0.994726       0.994859       0.987759       0.00286656   0.00127881