Folder: Xray-Project/Dynamic XAS/Dynamic XAS Energy analyzed data/ESweep_0_5 Hz/Same Eo/Normalized Spectra (part 9)

File: Ir0_5Hz_ReaddMean_VPhsCorrect_17_202_mV_.csv.nor
# XDI/1.0 Athena/0.9.26
# Element.edge:                  K
# Element.symbol:                Co
# Column.1:                      energy eV
# Column.2:                      norm
# Column.3:                      nbkg
# Column.4:                      flat
# Column.5:                      fbkg
# Column.6:                      nder
# Column.7:                      nsec
# Athena.e0:                     7721.54
# Athena.eshift:                 0
# Athena.rbkg:                   1.0
# Athena.importance:             1
# Athena.standard:               None
# Athena.bkg_kweight:            3
# Athena.edge_step:              1.19536
# Athena.fixed_step:             no
# Athena.pre_edge_range:         -82.964 -19.904
# Athena.pre_edge_line:          0.292261 + 0.000176551 * E
# Athena.normalization_range:    45 125.256
# Athena.post_edge_polynomial:   15.6792 - 0.00166137 * E + 0 * E^2 + 0 * E^3
# Athena.spline_range_energy:    0.000 125.180
# Athena.clamps:                 0 24
# Athena.spline_range_k:         0.000 5.732
# Athena.kweight:                2
# Athena.window:                 hanning
# Athena.phase_correction:       no
# Athena.k_range:                .4 5.35
# Athena.dk:                     .5
# Athena.r_range:                .4 5.1
# Athena.dr:                     .5
# Athena.window:                 hanning
# Athena.plot_multiplier:        1
# Athena.y_offset:               0.2
# ///
#------------------------
#   e         norm        nbkg        flat        fbkg        nder        nsec
  7600.07      -0.214901      -0.0149008  -0.214901      -0.214901       0.0121332  -0.000504481
  7624.56      -0.0484046   0.151595      -0.0484046  -0.0484046   0.00297947  -0.000206072
  7649.7      -0.0150709   0.184929      -0.0150709  -0.0150709  -0.000306608   9.19224e-05
  7674.73       0.0756457   0.275646       0.0756457   0.0756457   0.000190024  -0.000277044
  7700.01      -0.00875233   0.191248      -0.00875233  -0.00875233   0.000343959   0.00101579
  7700.72      -0.00171608   0.198284      -0.00171608  -0.00171608   0.00452359  -0.024048
  7701.43      -0.00636398   0.193636      -0.00636398  -0.00636398   0.000911742   0.0168219
  7702.15      -0.00223342   0.197767      -0.00223342  -0.00223342  -0.00234657  -0.0161403
  7702.88      -0.00646423   0.193536      -0.00646423  -0.00646423  -0.00301465   0.00607188
  7703.6      -0.00749482   0.192505      -0.00749482  -0.00749482   0.00287757   0.0137292
  7704.32      -0.00137444   0.198626      -0.00137444  -0.00137444   0.00407617  -0.0144689
  7705.02      -0.00280787   0.197192      -0.00280787  -0.00280787  -0.00508701   0.00468473
  7705.75      -0.00194131   0.198059      -0.00194131  -0.00194131   0.0166133   0.030897
  7706.47       0.0152238   0.215224       0.0152238   0.0152238   0.0282463   0.0106178
  7707.2       0.037995   0.237995       0.037995   0.037995   0.0257939  -0.0173675
  7707.91       0.0515121   0.251512       0.0515121   0.0515121   0.00783282  -0.0213385
  7708.65       0.053977   0.253977       0.053977   0.053977  -0.000314915  -0.0135181
  7709.29       0.0500373   0.250037       0.0500373   0.0500373   0.00166921   0.021167
  7709.9       0.054254   0.254254       0.054254   0.054254  -0.00570563  -0.0365445
  7710.51       0.0447249   0.244725       0.0447249   0.0447249  -0.0098308   0.0230501
  7711.11       0.0438402   0.24384       0.0438402   0.0438402   0.00742593   0.00659631
  7711.73       0.0453348   0.245335       0.0453348   0.0453348  -0.00623128  -0.0113568
  7712.33       0.0425748   0.242575       0.0425748   0.0425748  -0.00889242   0.0147286
  7712.95       0.0453764   0.245376       0.0453764   0.0453764   0.014999   0.0285114
  7713.54       0.0578773   0.257877       0.0578773   0.0578773   0.0418462   0.0618128
  7714.16       0.0949889   0.294989       0.0949889   0.0949889   0.0725631   0.0139118
  7714.78       0.136971       0.336971       0.136971       0.136971       0.0503798  -0.0569544
  7715.39       0.157422       0.357422       0.157422       0.157422       0.0436314   0.0276147
  7715.97       0.186697       0.386697       0.186697       0.186697       0.0259428  -0.0875109
  7716.26       0.189269       0.389269       0.189269       0.189269       0.0385716   0.201477
  7716.5       0.202794       0.402794       0.202794       0.202794       0.0590316   0.0462881
  7716.73       0.218505       0.418505       0.218505       0.218505       0.0420245  -0.14552
  7716.99       0.22646       0.42646       0.22646       0.22646       0.0389144   0.0286954
  7717.23       0.235748       0.435748       0.235748       0.235748       0.0551848   0.205318
  7717.46       0.256137       0.456137       0.256137       0.256137       0.0494797  -0.204955
  7717.71       0.265918       0.465918       0.265918       0.265918       0.0884877   0.173287
  7717.96       0.286607       0.486607       0.286607       0.286607       0.0728943   0.104304
  7718.21       0.312918       0.512918       0.312918       0.312918       0.101624      -0.178078
  7718.44       0.327424       0.527424       0.327424       0.327424       0.0961337   0.179414
  7718.69       0.354055       0.554055       0.354055       0.354055       0.0658665  -0.0795466
  7718.94       0.375251       0.575251       0.375251       0.375251       0.147511       0.287215
  7719.17       0.412213       0.612213       0.412213       0.412213       0.120795      -0.218053
  7719.42       0.439008       0.639008       0.439008       0.439008       0.146266       0.161378
  7719.67       0.474535       0.674535       0.474535       0.474535       0.129356       0.041103
  7719.9       0.510916       0.710916       0.510916       0.510916       0.190691       0.126783
  7720.15       0.557975       0.757975       0.557975       0.557975       0.207458       0.018604
  7720.4       0.604227       0.804227       0.604227       0.604227       0.147554      -0.0803865
  7720.65       0.646637       0.846637       0.646637       0.646637       0.190454       0.221995
  7720.88       0.699253       0.899253       0.699253       0.699253       0.21212      -0.0553945
  7721.13       0.753136       0.953136       0.753136       0.753136       0.197852      -0.0240482
  7721.38       0.803944        1.00394       0.803944       0.803944       0.247658       0.250634
  7721.61       0.866899        2.27505       0.86701        2.07516       0.237563      -0.195687
  7721.86       0.922511        2.24187       0.923006        2.04236       0.277795      -0.0738158
  7722.1       0.972235        2.2103       0.973102        2.01117       0.146742       0.10127
  7722.36        1.03091        2.17775        1.03216        1.979       0.231055      -0.207306
  7722.59        1.07286        2.14815        1.07448        1.94977       0.175072      -0.197523
  7722.85        1.10579        2.11685        1.1078        1.91885       0.122248       0.173227
  7723.05        1.14078        2.0919        1.14311        1.89422       0.176983      -0.109904
  7723.41        1.19143        2.04958        1.19429        1.85245       0.127773      -0.0256686
  7723.8        1.24369        2.00391        1.24716        1.80739       0.10398      -0.150563
  7724.2        1.27269        1.95914        1.27678        1.76323       0.0371843  -0.151352
  7724.59        1.27779        1.91615        1.28248        1.72084       0.0166379  -0.0528263
  7725.01        1.27454        1.87217        1.27987        1.67751      -0.0348855  -0.0383036
  7726.51        1.20918        1.72541        1.21682        1.53305      -0.0492589   0.000913434
  7728.07        1.14346        1.59133        1.1535        1.40137      -0.0393097   0.0077873
  7729.59        1.09726        1.47721        1.10964        1.28959      -0.0100179   0.01814
  7731.15        1.09318        1.37739        1.10795        1.19216      -0.000679098   0.00364474
  7732.68        1.09784        1.29393        1.11497        1.11106      -0.0078074  -0.00739643
  7734.21        1.08513        1.22406        1.10462        1.04355      -0.000872944  -0.00347927
  7735.77        1.06387        1.16594        1.08576       0.987825      -0.0162909   0.00771539
  7737.31        1.06148        1.12037        1.08573       0.944611      -0.00498114  -0.0117308
  7738.84        1.03137        1.08507        1.05798       0.911674      -0.0170491   0.00592814
  7740.39        1.01517        1.05881        1.04415       0.887787      -0.0152499  -0.00789966
  7741.95       0.979665        1.04047        1.01105       0.871852      -0.0244004   0.000306759
  7746.97       0.870838        1.0236       0.909937       0.862701      -0.0163355   0.00170103
  7751.94       0.805364        1.03974       0.852097       0.886473      -0.0111658   0.00105811
  7756.95       0.765793        1.05775       0.820236       0.912195      -0.000715714   0.00264527
  7761.95       0.792124        1.07235       0.854252       0.934474       0.00730137   0.00121605
  7766.97       0.849303        1.08381       0.919146       0.953658       0.0113433  -3.68556e-05
  7771.99       0.905603        1.09229       0.983167       0.969855       0.01124  -0.00112645
  7777       0.933404        1.09794        1.01867       0.983212       0.00215472  -0.000739262
  7784.15       0.940977        1.10155        1.03724       0.997812      -0.00392396  -0.000603191
  7791.28       0.917849        1.1004        1.02508        1.00764       0.000936735   0.000261781
  7798.44       0.908078        1.09506        1.02631        1.01329      -0.00356481  -0.000285951
  7805.61       0.883593        1.08604        1.01286        1.01531      -0.00334978   0.000102713
  7812.81       0.864362        1.07388        1.00469        1.01421       0.000186813  -2.09494e-06
  7819.99       0.84505        1.05918       0.996427        1.01056      -0.00385201   2.44041e-05
  7827.22       0.826894        1.04239       0.989386        1.00488      -0.0044327   3.84908e-05
  7834.44       0.810776        1.0242       0.984361       0.997787       0.00104354  -2.92622e-05
  7841.69       0.793037        1.00506       0.977773       0.989793      -0.001924   0.000729444
  7845.32       0.803381       0.99533       0.993698       0.985647       0.00284969   0.00131507

File: Ir0_5Hz_ReaddMean_VPhsCorrect_18_182_mV_.csv.nor
# XDI/1.0 Athena/0.9.26
# Element.edge:                  K
# Element.symbol:                Co
# Column.1:                      energy eV
# Column.2:                      norm
# Column.3:                      nbkg
# Column.4:                      flat
# Column.5:                      fbkg
# Column.6:                      nder
# Column.7:                      nsec
# Athena.e0:                     7721.54
# Athena.eshift:                 0
# Athena.rbkg:                   1.0
# Athena.importance:             1
# Athena.standard:               None
# Athena.bkg_kweight:            3
# Athena.edge_step:              1.19556
# Athena.fixed_step:             no
# Athena.pre_edge_range:         -82.964 -19.904
# Athena.pre_edge_line:          0.251771 + 0.000181812 * E
# Athena.normalization_range:    45 125.256
# Athena.post_edge_polynomial:   15.7311 - 0.00166805 * E + 0 * E^2 + 0 * E^3
# Athena.spline_range_energy:    0.000 125.180
# Athena.clamps:                 0 24
# Athena.spline_range_k:         0.000 5.732
# Athena.kweight:                2
# Athena.window:                 hanning
# Athena.phase_correction:       no
# Athena.k_range:                .4 5.35
# Athena.dk:                     .5
# Athena.r_range:                .4 5.1
# Athena.dr:                     .5
# Athena.window:                 hanning
# Athena.plot_multiplier:        1
# Athena.y_offset:               0.2
# ///
#------------------------
#   e         norm        nbkg        flat        fbkg        nder        nsec
  7600.07      -0.213808      -0.013808  -0.213808      -0.213808       0.0120703  -0.000498619
  7624.56      -0.0473349   0.152665      -0.0473349  -0.0473349   0.00295756  -0.000207445
  7649.7      -0.0149423   0.185058      -0.0149423  -0.0149423  -0.000288471   9.27821e-05
  7674.73       0.0753751   0.275375       0.0753751   0.0753751   0.000176498  -0.000276175
  7700.01      -0.0088743   0.191126      -0.0088743  -0.0088743   0.000322443   0.00101871
  7700.72      -0.00180684   0.198193      -0.00180684  -0.00180684   0.00514315  -0.0235228
  7701.43      -0.00616678   0.193833      -0.00616678  -0.00616678   0.00115152   0.016134
  7702.15      -0.00210638   0.197894      -0.00210638  -0.00210638  -0.00265425  -0.0161505
  7702.88      -0.00641292   0.193587      -0.00641292  -0.00641292  -0.00307502   0.00726503
  7703.6      -0.00689353   0.193106      -0.00689353  -0.00689353   0.0024178   0.0135454
  7704.32      -0.000315953   0.199684      -0.000315953  -0.000315953   0.00410568  -0.0166949
  7705.02      -0.00243428   0.197566      -0.00243428  -0.00243428  -0.00467137   0.00573341
  7705.75      -0.00175555   0.198244      -0.00175555  -0.00175555   0.0167877   0.031939
  7706.47       0.0157735   0.215774       0.0157735   0.0157735   0.0278644   0.00852042
  7707.2       0.0378169   0.237817       0.0378169   0.0378169   0.0262186  -0.014732
  7707.91       0.0519878   0.251988       0.0519878   0.0519878   0.00667449  -0.023477
  7708.65       0.0539874   0.253987       0.0539874   0.0539874   0.000406381  -0.0129427
  7709.29       0.0498977   0.249898       0.0498977   0.0498977   0.00190887   0.0218977
  7709.9       0.0542468   0.254247       0.0542468   0.0542468  -0.00573168  -0.0376653
  7710.51       0.0444284   0.244428       0.0444284   0.0444284  -0.00976631   0.0236349
  7711.11       0.0434751   0.243475       0.0434751   0.0434751   0.00778452   0.00682076
  7711.73       0.0449805   0.24498       0.0449805   0.0449805  -0.00628299  -0.010279
  7712.33       0.0426329   0.242633       0.0426329   0.0426329  -0.00967376   0.0110243
  7712.95       0.0444425   0.244443       0.0444425   0.0444425   0.0146318   0.0345988
  7713.54       0.058112   0.258112       0.058112   0.058112   0.0422454   0.05706
  7714.16       0.0946384   0.294638       0.0946384   0.0946384   0.0731639   0.0167826
  7714.78       0.137133       0.337133       0.137133       0.137133       0.0502623  -0.0601328
  7715.39       0.156916       0.356916       0.156916       0.156916       0.0440737   0.0296381
  7715.97       0.18625       0.38625       0.18625       0.18625       0.023592  -0.0844437
  7716.26       0.189257       0.389257       0.189257       0.189257       0.0399422   0.189573
  7716.5       0.202488       0.402488       0.202488       0.202488       0.0624921   0.0616668
  7716.73       0.218828       0.418828       0.218828       0.218828       0.0432124  -0.161275
  7716.99       0.226476       0.426476       0.226476       0.226476       0.037307   0.0328105
  7717.23       0.235705       0.435705       0.235705       0.235705       0.0519678   0.200181
  7717.46       0.255746       0.455746       0.255746       0.255746       0.0452019  -0.188617
  7717.71       0.26613       0.46613       0.26613       0.26613       0.0914846   0.164579
  7717.96       0.286884       0.486884       0.286884       0.286884       0.0794836   0.10551
  7718.21       0.313327       0.513327       0.313327       0.313327       0.0982468  -0.204085
  7718.44       0.326406       0.526406       0.326406       0.326406       0.0953473   0.199494
  7718.69       0.352748       0.552748       0.352748       0.352748       0.0706525  -0.0672671
  7718.94       0.374357       0.574357       0.374357       0.374357       0.143672       0.272098
  7719.17       0.410832       0.610832       0.410832       0.410832       0.119085      -0.159414
  7719.42       0.44069       0.64069       0.44069       0.44069       0.148143       0.0842926
  7719.67       0.474731       0.674731       0.474731       0.474731       0.132618       0.0580957
  7719.9       0.510704       0.710704       0.510704       0.510704       0.187681       0.145485
  7720.15       0.558487       0.758487       0.558487       0.558487       0.20513      -0.0073769
  7720.4       0.603964       0.803964       0.603963       0.603963       0.154738      -0.0710373
  7720.65       0.646159       0.846159       0.646159       0.646159       0.191012       0.208466
  7720.88       0.697785       0.897785       0.697785       0.697785       0.208546      -0.0170267
  7721.13       0.752997       0.952997       0.752997       0.752997       0.196963      -0.0359295
  7721.38       0.80441        1.00441       0.80441       0.80441       0.248114       0.233062
  7721.61       0.8669        2.27197       0.867011        2.07208       0.229107      -0.196078
  7721.86       0.921988        2.23887       0.922486        2.03937       0.285457      -0.052782
  7722.1       0.972375        2.20738       0.973248        2.00826       0.146103       0.0805545
  7722.36        1.03042        2.17491        1.03168        1.97618       0.234528      -0.192031
  7722.59        1.0727        2.14539        1.07433        1.94702       0.172406      -0.210868
  7722.85        1.10515        2.11416        1.10717        1.91619       0.122315       0.182246
  7723.05        1.14019        2.08928        1.14253        1.89162       0.178907      -0.112192
  7723.41        1.19071        2.04707        1.19359        1.84996       0.123839      -0.0251778
  7723.8        1.2429        2.00152        1.2464        1.80501       0.103809      -0.14752
  7724.2        1.27232        1.95686        1.27644        1.76097       0.037131  -0.157844
  7724.59        1.27682        1.91397        1.28154        1.71869       0.0198723  -0.0473569
  7725.01        1.27382        1.8701        1.27919        1.67547      -0.0360713  -0.0383399
  7726.51        1.20935        1.7237        1.21704        1.53139      -0.0489555   2.87513e-05
  7728.07        1.14237        1.58995        1.15247        1.40005      -0.0391272   0.00863113
  7729.59        1.0969        1.47611        1.10936        1.28857      -0.0109262   0.0178677
  7731.15        1.09292        1.37652        1.10778        1.19138       8.63232e-05   0.00355407
  7732.68        1.09747        1.29326        1.11471        1.11049      -0.00749562  -0.0073027
  7734.21        1.08487        1.22354        1.10448        1.04315      -0.00115802  -0.00348398
  7735.77        1.0637        1.16555        1.08573       0.987573      -0.0167611   0.00773806
  7737.31        1.06146        1.12007        1.08586       0.944468      -0.00412267  -0.012169
  7738.84        1.03047        1.08484        1.05724       0.911614      -0.0181312   0.00631579
  7740.39        1.01429        1.05862        1.04345       0.887786      -0.014349  -0.00780374
  7741.95       0.979044        1.04031        1.01063       0.87189      -0.0247293   0.000321888
  7746.97       0.871303        1.02341       0.910649       0.862756      -0.0162141   0.00161162
  7751.94       0.804682        1.03943       0.851711       0.886464      -0.0112004   0.00111587
  7756.95       0.765403        1.05734       0.82019       0.912128      -0.000954756   0.00263778
  7761.95       0.791837        1.07185       0.854358       0.934366       0.00763534   0.00125061
  7766.97       0.849994        1.08324       0.920279       0.953524       0.0113423  -0.000131294
  7771.99       0.904904        1.09165       0.98296       0.969708       0.011144  -0.00110209
  7777       0.931933        1.09726        1.01774       0.983064       0.00224257  -0.000697407
  7784.15       0.94022        1.1008        1.03709       0.997675      -0.0040162  -0.000607941
  7791.28       0.917563        1.09961        1.02547        1.00752       0.000844307   0.000250909
  7798.44       0.907707        1.09423        1.02669        1.01321      -0.00352712  -0.000304491
  7805.61       0.882185        1.08516        1.01227        1.01525      -0.0034562   0.000130478
  7812.81       0.863351        1.07295        1.00457        1.01417       0.000215763  -1.04021e-05
  7819.99       0.844006        1.05818       0.996342        1.01052      -0.00368878   4.21094e-05
  7827.22       0.826743        1.04131       0.990264        1.00483      -0.00460288   1.5645e-05
  7834.44       0.810326        1.02301       0.985011       0.997692       0.00117811  -3.17796e-05
  7841.69       0.792155        1.00371       0.978061       0.98962      -0.00202582   0.000716302
  7845.32       0.801937       0.993898       0.99346       0.98542       0.00269474   0.00130043