Folder: Xray-Project/Dynamic XAS/Dynamic XAS Energy analyzed data/ESweep_0_5 Hz/Same Eo/Normalized Spectra (part 13)

File: Ir0_5Hz_ReaddMean_VPhsCorrect_25_-16_mV_.csv.nor
# XDI/1.0 Athena/0.9.26
# Element.edge:                  K
# Element.symbol:                Co
# Column.1:                      energy eV
# Column.2:                      norm
# Column.3:                      nbkg
# Column.4:                      flat
# Column.5:                      fbkg
# Column.6:                      nder
# Column.7:                      nsec
# Athena.e0:                     7721.54
# Athena.eshift:                 0
# Athena.rbkg:                   1.0
# Athena.importance:             1
# Athena.standard:               None
# Athena.bkg_kweight:            3
# Athena.edge_step:              1.19367
# Athena.fixed_step:             no
# Athena.pre_edge_range:         -82.964 -19.904
# Athena.pre_edge_line:          0.127806 + 0.000198 * E
# Athena.normalization_range:    45 125.256
# Athena.post_edge_polynomial:   15.6176 - 0.00165346 * E + 0 * E^2 + 0 * E^3
# Athena.spline_range_energy:    0.000 125.180
# Athena.clamps:                 0 24
# Athena.spline_range_k:         0.000 5.732
# Athena.kweight:                2
# Athena.window:                 hanning
# Athena.phase_correction:       no
# Athena.k_range:                .4 5.35
# Athena.dk:                     .5
# Athena.r_range:                .4 5.1
# Athena.dr:                     .5
# Athena.window:                 hanning
# Athena.plot_multiplier:        1
# Athena.y_offset:               0.2
# ///
#------------------------
#   e         norm        nbkg        flat        fbkg        nder        nsec
  7600.07      -0.213691      -0.0136912  -0.213691      -0.213691       0.0120969  -0.000502518
  7624.56      -0.0475754   0.152425      -0.0475754  -0.0475754   0.00294149  -0.000206682
  7649.7      -0.0150403   0.18496      -0.0150403  -0.0150403  -0.000319063   9.55101e-05
  7674.73       0.0771263   0.277126       0.0771263   0.0771263   0.000183297  -0.000281637
  7700.01      -0.00872538   0.191275      -0.00872538  -0.00872538   0.000406905   0.000932776
  7700.72      -0.00249836   0.197502      -0.00249836  -0.00249836   0.00400324  -0.0207593
  7701.43      -0.00635633   0.193644      -0.00635633  -0.00635633   0.00202666   0.0151134
  7702.15      -0.00232471   0.197675      -0.00232471  -0.00232471  -0.00448459  -0.0166067
  7702.88      -0.00689699   0.193103      -0.00689699  -0.00689699  -0.00170771   0.00830074
  7703.6      -0.00709935   0.192901      -0.00709935  -0.00709935   0.0018228   0.0110334
  7704.32      -0.00155141   0.198449      -0.00155141  -0.00155141   0.00317254  -0.011997
  7705.02      -0.00228637   0.197714      -0.00228637  -0.00228637  -0.00250669   0.000393331
  7705.75      -0.00285829   0.197142      -0.00285829  -0.00285829   0.0150712   0.03406
  7706.47       0.0145515   0.214552       0.0145515   0.0145515   0.0292917   0.0122398
  7707.2       0.038414   0.238414       0.038414   0.038414   0.0274277  -0.0219077
  7707.91       0.0506434   0.250643       0.0506434   0.0506434   0.00490752  -0.016544
  7708.65       0.0543331   0.254333       0.0543331   0.0543331   0.000821287  -0.0189638
  7709.29       0.0490104   0.24901       0.0490104   0.0490104   0.00257608   0.0263773
  7709.9       0.0538719   0.253872       0.0538719   0.0538719  -0.00797821  -0.0385641
  7710.51       0.0442265   0.244226       0.0442265   0.0442265  -0.008394   0.0206275
  7711.11       0.0423481   0.242348       0.0423481   0.0423481   0.00597608   0.0122282
  7711.73       0.044871   0.244871       0.044871   0.044871  -0.00625254  -0.00676602
  7712.33       0.0448354   0.244835       0.0448354   0.0448354  -0.00668626  -0.000221726
  7712.95       0.0447146   0.244715       0.0447146   0.0447146   0.0154261   0.0409786
  7713.54       0.0587684   0.258768       0.0587684   0.0587684   0.0454467   0.0599309
  7714.16       0.0968093   0.296809       0.0968093   0.0968093   0.077544   0.0133245
  7714.78       0.139487       0.339487       0.139487       0.139487       0.0438791  -0.0464844
  7715.39       0.164496       0.364496       0.164496       0.164496       0.0503395   0.00270403
  7715.97       0.189501       0.389501       0.189501       0.189501       0.0194599  -0.0419505
  7716.26       0.196032       0.396032       0.196032       0.196032       0.029385   0.0498352
  7716.5       0.20446       0.40446       0.20446       0.20446       0.0828918   0.173749
  7716.73       0.222829       0.422828       0.222829       0.222829       0.0494395  -0.219701
  7716.99       0.229008       0.429008       0.229008       0.229008       0.0330601   0.110141
  7717.23       0.241259       0.441259       0.241259       0.241259       0.0327536   0.101103
  7717.46       0.258476       0.458476       0.258476       0.258476       0.0686648  -0.105379
  7717.71       0.270796       0.470796       0.270796       0.270796       0.0807521   0.186987
  7717.96       0.294903       0.494903       0.294903       0.294903       0.107155      -0.0276747
  7718.21       0.317044       0.517044       0.317044       0.317044       0.0805576  -0.063934
  7718.44       0.334379       0.534379       0.334379       0.334379       0.0853011   0.0535878
  7718.69       0.356277       0.556277       0.356277       0.356277       0.108023       0.164799
  7718.94       0.386683       0.586683       0.386683       0.386683       0.100565       0.0225866
  7719.17       0.417028       0.617028       0.417028       0.417028       0.127967       0.0194691
  7719.42       0.451181       0.651181       0.451181       0.451181       0.170996       0.0767612
  7719.67       0.488978       0.688978       0.488978       0.488978       0.150123      -0.0979239
  7719.9       0.519262       0.719262       0.519262       0.519262       0.152861       0.355109
  7720.15       0.573967       0.773967       0.573967       0.573967       0.209403      -0.140032
  7720.4       0.618582       0.818582       0.618582       0.618582       0.18192      -0.0975988
  7720.65       0.658247       0.858247       0.658247       0.658247       0.172835       0.199448
  7720.88       0.706981       0.906981       0.706981       0.706981       0.234168       0.0577618
  7721.13       0.763731       0.963731       0.763731       0.763731       0.160723      -0.133845
  7721.38       0.811022        1.01102       0.811022       0.811022       0.242477       0.276326
  7721.61       0.872168        2.2668       0.87228        2.06691       0.243519      -0.17283
  7721.86       0.927232        2.23385       0.927731        2.03435       0.276588      -0.0698001
  7722.1       0.976649        2.20251       0.977524        2.00339       0.147939       0.0599422
  7722.36        1.03235        2.17019        1.03362        1.97146       0.228991      -0.134724
  7722.59        1.07588        2.1408        1.07751        1.94244       0.16231      -0.259828
  7722.85        1.10664        2.10972        1.10866        1.91175       0.125108       0.216434
  7723.05        1.14194        2.08495        1.14428        1.8873       0.167925      -0.147433
  7723.41        1.18973        2.04294        1.19262        1.84583       0.117761      -0.0162232
  7723.8        1.24027        1.99759        1.24378        1.8011       0.105598      -0.140164
  7724.2        1.26919        1.95314        1.27331        1.75726       0.0221682  -0.16257
  7724.59        1.27244        1.91045        1.27718        1.71519       0.0168908  -0.0652079
  7725.01        1.26522        1.86679        1.2706        1.67217      -0.0318622  -0.024885
  7726.51        1.20435        1.72107        1.21206        1.52877      -0.0479091   0.000744602
  7728.07        1.14289        1.58795        1.15301        1.39807      -0.0383604   0.0061309
  7729.59        1.09698        1.47465        1.10947        1.28714      -0.00987537   0.0185801
  7731.15        1.09424        1.37554        1.10915        1.19044      -0.000493012   0.00198704
  7732.68        1.09628        1.29269        1.11356        1.10997      -0.00811419  -0.00677149
  7734.21        1.08241        1.22332        1.10207        1.04298      -0.00154358  -0.00192506
  7735.77        1.0637        1.16562        1.08577       0.9877      -0.0157335   0.00683446
  7737.31        1.06169        1.12038        1.08615       0.944838      -0.00461158  -0.0125669
  7738.84        1.02999        1.08534        1.05683       0.912179      -0.0184347   0.00671879
  7740.39        1.01406        1.05927        1.0433       0.888505      -0.0141236  -0.00733453
  7741.95       0.980207        1.04106        1.01187       0.872725      -0.0243757   4.51434e-05
  7746.97       0.872347        1.02431       0.911789       0.863753      -0.0162819   0.00159245
  7751.94       0.805131        1.04028       0.852275       0.887429      -0.0111357   0.00113288
  7756.95       0.765678        1.05807       0.8206       0.912992      -0.000886672   0.00273602
  7761.95       0.794383        1.07242       0.857057       0.935093       0.00758214   0.0010879
  7766.97       0.850705        1.08363       0.921162       0.954086       0.0111482  -2.80121e-05
  7771.99       0.90637        1.09184       0.984616       0.970087       0.0112738  -0.00118378
  7777       0.932094        1.09724        1.01811       0.983253       0.00210067  -0.000680327
  7784.15       0.939262        1.10049        1.03637       0.997599      -0.00402348  -0.000596171
  7791.28       0.916086        1.09904        1.02426        1.00722       0.000650802   0.000261955
  7798.44       0.906277        1.09346        1.02555        1.01273      -0.00341229  -0.000272735
  7805.61       0.882431        1.08429        1.01284        1.01469      -0.00331657   0.000100174
  7812.81       0.863711        1.07209        1.00527        1.01365       4.5086e-05  -1.84666e-05
  7819.99       0.844065        1.05749       0.996773        1.0102      -0.00360405   4.38842e-05
  7827.22       0.82659        1.04097       0.99051        1.00489      -0.00440345   3.15063e-05
  7834.44       0.810787        1.02323       0.985899       0.998337       0.000992695  -8.09134e-05
  7841.69       0.790652        1.00474       0.977011       0.991096      -0.0019023   0.000822037
  7845.32       0.802237       0.995423       0.994227       0.987413       0.00319145   0.00140324

File: Ir0_5Hz_ReaddMean_VPhsCorrect_27_-77_mV_.csv.nor
# XDI/1.0 Athena/0.9.26
# Element.edge:                  K
# Element.symbol:                Co
# Column.1:                      energy eV
# Column.2:                      norm
# Column.3:                      nbkg
# Column.4:                      flat
# Column.5:                      fbkg
# Column.6:                      nder
# Column.7:                      nsec
# Athena.e0:                     7721.54
# Athena.eshift:                 0
# Athena.rbkg:                   1.0
# Athena.importance:             1
# Athena.standard:               None
# Athena.bkg_kweight:            3
# Athena.edge_step:              1.19458
# Athena.fixed_step:             no
# Athena.pre_edge_range:         -82.964 -19.904
# Athena.pre_edge_line:          0.227752 + 0.000185002 * E
# Athena.normalization_range:    45 125.256
# Athena.post_edge_polynomial:   15.6754 - 0.00166088 * E + 0 * E^2 + 0 * E^3
# Athena.spline_range_energy:    0.000 125.180
# Athena.clamps:                 0 24
# Athena.spline_range_k:         0.000 5.732
# Athena.kweight:                2
# Athena.window:                 hanning
# Athena.phase_correction:       no
# Athena.k_range:                .4 5.35
# Athena.dk:                     .5
# Athena.r_range:                .4 5.1
# Athena.dr:                     .5
# Athena.window:                 hanning
# Athena.plot_multiplier:        1
# Athena.y_offset:               0.2
# ///
#------------------------
#   e         norm        nbkg        flat        fbkg        nder        nsec
  7600.07      -0.214061      -0.0140613  -0.214061      -0.214061       0.0120524  -0.000497656
  7624.56      -0.0477766   0.152223      -0.0477766  -0.0477766   0.00298909  -0.000206112
  7649.7      -0.014687   0.185313      -0.014687  -0.014687  -0.000378633   9.3785e-05
  7674.73       0.0769522   0.276952       0.0769522   0.0769522   0.000226937  -0.000280206
  7700.01      -0.00852344   0.191477      -0.00852344  -0.00852344   0.000411336   0.000934015
  7700.72      -0.0022744   0.197726      -0.0022744  -0.0022744   0.00378455  -0.0210084
  7701.43      -0.00623183   0.193768      -0.00623183  -0.00623183   0.00190989   0.0172564
  7702.15      -0.00117725   0.198823      -0.00117725  -0.00117725  -0.0036331  -0.018987
  7702.88      -0.00595792   0.194042      -0.00595792  -0.00595792  -0.00392391   0.00596429
  7703.6      -0.00759249   0.192408      -0.00759249  -0.00759249   0.00525602   0.0164393
  7704.32      -0.000666757   0.199333      -0.000666757  -0.000666757   0.00291687  -0.0166638
  7705.02      -0.00243568   0.197564      -0.00243568  -0.00243568  -0.0043373   0.00343364
  7705.75      -0.00255397   0.197446      -0.00255397  -0.00255397   0.0166168   0.0323345
  7706.47       0.0143944   0.214394       0.0143944   0.0143944   0.0285119   0.0143587
  7707.2       0.0388981   0.238898       0.0388981   0.0388981   0.0267022  -0.0238425
  7707.91       0.0507533   0.250753       0.0507533   0.0507533   0.00497755  -0.0161536
  7708.65       0.054269   0.254269       0.054269   0.054269   0.000718439  -0.0177201
  7709.29       0.0493553   0.249355       0.0493553   0.0493553   0.00133337   0.0232859
  7709.9       0.0534424   0.253442       0.0534424   0.0534424  -0.00657498  -0.0310959
  7710.51       0.0458315   0.245832       0.0458315   0.0458315  -0.00740935   0.0136024
  7711.11       0.0433773   0.243377       0.0433773   0.0433773   0.00635423   0.0132989
  7711.73       0.0456938   0.245694       0.0456938   0.0456938  -0.00464939  -0.00585954
  7712.33       0.0457926   0.245793       0.0457926   0.0457926  -0.00697756   0.00300167
  7712.95       0.047038   0.247038       0.047038   0.047038   0.0166423   0.0395074
  7713.54       0.0618721   0.261872       0.0618721   0.0618721   0.0449186   0.0570042
  7714.16       0.0996173   0.299617       0.0996173   0.0996173   0.0757894   0.0120221
  7714.78       0.141508       0.341508       0.141508       0.141508       0.0452358  -0.0424508
  7715.39       0.167229       0.367229       0.167229       0.167229       0.0505327  -0.0016993
  7715.97       0.191389       0.391389       0.191389       0.191389       0.0191096  -0.0384041
  7716.26       0.197981       0.397981       0.197981       0.197981       0.0340209   0.0507482
  7716.5       0.206513       0.406513       0.206513       0.206513       0.0775694   0.155462
  7716.73       0.223899       0.423899       0.223899       0.223899       0.0563856  -0.172516
  7716.99       0.231979       0.431979       0.231979       0.231979       0.0329046   0.104393
  7717.23       0.245727       0.445727       0.245727       0.245727       0.0362159   0.0652357
  7717.46       0.262297       0.462297       0.262297       0.262297       0.0651717  -0.124688
  7717.71       0.272758       0.472758       0.272758       0.272758       0.0810746   0.270905
  7717.96       0.300236       0.500236       0.300236       0.300236       0.107739      -0.113257
  7718.21       0.32081       0.52081       0.32081       0.32081       0.0865337  -0.00409542
  7718.44       0.340219       0.540219       0.340219       0.340219       0.0807012   0.00902727
  7718.69       0.36159       0.56159       0.36159       0.36159       0.113432       0.200284
  7718.94       0.393489       0.593489       0.393489       0.393489       0.0933728  -0.0461024
  7719.17       0.42126       0.62126       0.42126       0.42126       0.130779       0.0549699
  7719.42       0.45479       0.65479       0.45479       0.45479       0.178021       0.120072
  7719.67       0.494493       0.694493       0.494493       0.494493       0.141596      -0.116037
  7719.9       0.525522       0.725522       0.525522       0.525522       0.151461       0.295298
  7720.15       0.577306       0.777306       0.577306       0.577306       0.211505      -0.021791
  7720.4       0.625809       0.825809       0.625809       0.625809       0.184418      -0.154152
  7720.65       0.665953       0.865953       0.665953       0.665953       0.167438       0.13922
  7720.88       0.711627       0.911627       0.711627       0.711627       0.24595       0.0986609
  7721.13       0.767607       0.967607       0.767607       0.767607       0.157979      -0.145837
  7721.38       0.813464        1.01346       0.813464       0.813464       0.240384       0.313704
  7721.61       0.875464        2.26702       0.875576        2.06713       0.245321      -0.179313
  7721.86       0.93105        2.23402       0.931547        2.03452       0.257448      -0.0920788
  7722.1       0.979731        2.20263       0.980603        2.0035       0.15898       0.0798696
  7722.36        1.03594        2.17025        1.0372        1.97152       0.221059      -0.186533
  7722.59        1.07685        2.14082        1.07848        1.94245       0.157678      -0.22049
  7722.85        1.10723        2.10969        1.10925        1.91171       0.113824       0.200674
  7723.05        1.14147        2.08488        1.14381        1.88722       0.16981      -0.128193
  7723.41        1.18917        2.04281        1.19205        1.84569       0.122908      -0.012316
  7723.8        1.24021        1.99739        1.2437        1.80088       0.101656      -0.161921
  7724.2        1.26618        1.95287        1.27029        1.75698       0.0171326  -0.151111
  7724.59        1.26832        1.91013        1.27303        1.71484       0.0168134  -0.0417538
  7725.01        1.26375        1.8664        1.2691        1.67176      -0.033268  -0.0316267
  7726.51        1.20299        1.72049        1.21067        1.52817      -0.0457284   0.000949431
  7728.07        1.14215        1.58721        1.15223        1.3973      -0.0378188   0.00556486
  7729.59        1.09554        1.4738        1.10798        1.28624      -0.00916495   0.0185038
  7731.15        1.09189        1.37462        1.10674        1.18946      -0.00207339   0.0029271
  7732.68        1.09528        1.29172        1.11249        1.10893      -0.00700755  -0.00760767
  7734.21        1.0808        1.22234        1.10038        1.04193      -0.000691969  -0.00134655
  7735.77        1.06285        1.16466        1.08484       0.986655      -0.0161589   0.00646577
  7737.31        1.06071        1.11946        1.08507       0.943825      -0.00582447  -0.0127127
  7738.84        1.02853        1.08448        1.05527       0.911219      -0.0174798   0.00706089
  7740.39        1.01294        1.05849        1.04206       0.887616      -0.0151088  -0.00732896
  7741.95       0.979431        1.04038        1.01097       0.871922      -0.0243928  -3.05445e-05
  7746.97       0.871444        1.024       0.910738       0.863289      -0.0157486   0.00166441
  7751.94       0.805891        1.04034       0.852858       0.887304      -0.0111246   0.00108109
  7756.95       0.766817        1.05841       0.821532       0.913128      -0.000986626   0.00266557
  7761.95       0.794148        1.07296       0.856586       0.935401       0.00778287   0.00115638
  7766.97       0.850823        1.0843       0.921014       0.954491       0.0108982  -8.51084e-05
  7771.99       0.905408        1.09257       0.98336       0.970525       0.0113441  -0.00110956
  7777       0.931924        1.09798        1.01762       0.983669       0.00215075  -0.000699515
  7784.15       0.939388        1.10117        1.03613       0.997917      -0.00401015  -0.000577944
  7791.28       0.917435        1.09962        1.0252        1.00739       0.000572782   0.000218109
  7798.44       0.906604        1.09392        1.02543        1.01274      -0.00332772  -0.000283537
  7805.61       0.881178        1.08464        1.01109        1.01455      -0.00330183   0.00017429
  7812.81       0.864708        1.07238        1.00574        1.01341      -6.88951e-05  -7.57129e-05
  7819.99       0.844356        1.05782       0.996488        1.00995      -0.00358561   4.59265e-05
  7827.22       0.826277        1.04144       0.98958        1.00474      -0.00419822   2.38706e-05
  7834.44       0.809475        1.024       0.983927       0.998454       0.00072591  -1.70113e-05
  7841.69       0.791694        1.00601       0.977351       0.991669      -0.00167837   0.000804977
  7845.32       0.804007       0.99703       0.995274       0.988297       0.00339215   0.00139684