Folder: Xray-Project/Dynamic XAS/Dynamic XAS Energy analyzed data/ESweep_0_5 Hz/Same Eo/Normalized Spectra (part 14)

File: Ir0_5Hz_ReaddMean_VPhsCorrect_28_-106_mV_.csv.nor
# XDI/1.0 Athena/0.9.26
# Element.edge:                  K
# Element.symbol:                Co
# Column.1:                      energy eV
# Column.2:                      norm
# Column.3:                      nbkg
# Column.4:                      flat
# Column.5:                      fbkg
# Column.6:                      nder
# Column.7:                      nsec
# Athena.e0:                     7721.54
# Athena.eshift:                 0
# Athena.rbkg:                   1.0
# Athena.importance:             1
# Athena.standard:               None
# Athena.bkg_kweight:            3
# Athena.edge_step:              1.195
# Athena.fixed_step:             no
# Athena.pre_edge_range:         -82.964 -19.904
# Athena.pre_edge_line:          0.203303 + 0.000188169 * E
# Athena.normalization_range:    45 125.256
# Athena.post_edge_polynomial:   15.7178 - 0.00166632 * E + 0 * E^2 + 0 * E^3
# Athena.spline_range_energy:    0.000 125.180
# Athena.clamps:                 0 24
# Athena.spline_range_k:         0.000 5.732
# Athena.kweight:                2
# Athena.window:                 hanning
# Athena.phase_correction:       no
# Athena.k_range:                .4 5.35
# Athena.dk:                     .5
# Athena.r_range:                .4 5.1
# Athena.dr:                     .5
# Athena.window:                 hanning
# Athena.plot_multiplier:        1
# Athena.y_offset:               0.2
# ///
#------------------------
#   e         norm        nbkg        flat        fbkg        nder        nsec
  7600.07      -0.213616      -0.0136162  -0.213616      -0.213616       0.0120395  -0.000495005
  7624.56      -0.0469612   0.153039      -0.0469612  -0.0469612   0.00296461  -0.000207772
  7649.7      -0.0145999   0.1854      -0.0145999  -0.0145999  -0.000351646   9.49942e-05
  7674.73       0.0770708   0.277071       0.0770708   0.0770708   0.000218298  -0.000280475
  7700.01      -0.00854358   0.191456      -0.00854358  -0.00854358   0.000387127   0.000917936
  7700.72      -0.00244728   0.197553      -0.00244728  -0.00244728   0.00420106  -0.020896
  7701.43      -0.00650385   0.193496      -0.00650385  -0.00650385   0.00216238   0.0177403
  7702.15      -0.0012956   0.198704      -0.0012956  -0.0012956  -0.0039169  -0.0189008
  7702.88      -0.00587722   0.194123      -0.00587722  -0.00587722  -0.00328824   0.00624071
  7703.6      -0.00716868   0.192831      -0.00716868  -0.00716868   0.00511206   0.0151048
  7704.32      -0.000593577   0.199406      -0.000593577  -0.000593577   0.00278338  -0.0150777
  7705.02      -0.00189828   0.198102      -0.00189828  -0.00189828  -0.00415424   0.00121095
  7705.75      -0.00265417   0.197346      -0.00265417  -0.00265417   0.0166673   0.0355949
  7706.47       0.0153836   0.215384       0.0153836   0.0153836   0.0278983   0.00913495
  7707.2       0.0382581   0.238258       0.0382581   0.0382581   0.0271294  -0.0197427
  7707.91       0.0506377   0.250638       0.0506377   0.0506377   0.00317794  -0.0178195
  7708.65       0.0538062   0.253806       0.0538062   0.0538062   0.00201936  -0.0161695
  7709.29       0.0492874   0.249287       0.0492874   0.0492874   0.000654377   0.0212064
  7709.9       0.052968   0.252968       0.052968   0.052968  -0.00679692  -0.0298039
  7710.51       0.0454372   0.245437       0.0454372   0.0454372  -0.00600694   0.0157136
  7711.11       0.0438284   0.243828       0.0438284   0.0438284   0.0066551   0.0113707
  7711.73       0.0463176   0.246318       0.0463176   0.0463176  -0.00429829  -0.00520728
  7712.33       0.0468297   0.24683       0.0468297   0.0468297  -0.00730885  -2.29694e-05
  7712.95       0.0473431   0.247343       0.0473431   0.0473431   0.0173728   0.0428698
  7713.54       0.0626491   0.262649       0.0626491   0.0626491   0.0446361   0.056075
  7714.16       0.100539       0.300539       0.100539       0.100539       0.0757798   0.0109781
  7714.78       0.142176       0.342176       0.142176       0.142176       0.0456547  -0.0414408
  7715.39       0.16802       0.36802       0.16802       0.16802       0.0504598  -0.00395925
  7715.97       0.191513       0.391513       0.191513       0.191513       0.0191112  -0.0236382
  7716.26       0.199734       0.399734       0.199734       0.199734       0.0386232   0.0185422
  7716.5       0.207863       0.407863       0.207863       0.207863       0.0706928   0.138814
  7716.73       0.223877       0.423877       0.223877       0.223877       0.0621231  -0.112895
  7716.99       0.234217       0.434217       0.234217       0.234217       0.0364025   0.0595067
  7717.23       0.247563       0.447563       0.247563       0.247563       0.0288342   0.0694768
  7717.46       0.264       0.464       0.264       0.264       0.0742393  -0.117128
  7717.71       0.27477       0.47477       0.27477       0.27477       0.0792161   0.271534
  7717.96       0.302598       0.502598       0.302598       0.302598       0.103064      -0.110856
  7718.21       0.323654       0.523654       0.323654       0.323654       0.0912818  -0.00381626
  7718.44       0.343541       0.543541       0.343541       0.343541       0.076206  -0.0226509
  7718.69       0.363468       0.563468       0.363468       0.363468       0.114945       0.237295
  7718.94       0.396061       0.596061       0.396061       0.396061       0.0962031  -0.0590905
  7719.17       0.423738       0.623738       0.423738       0.423738       0.128173       0.0463198
  7719.42       0.456637       0.656637       0.456637       0.456637       0.184388       0.147442
  7719.67       0.497312       0.697312       0.497312       0.497312       0.134307      -0.123948
  7719.9       0.5288       0.7288       0.5288       0.5288       0.155071       0.275282
  7720.15       0.579832       0.779832       0.579832       0.579832       0.213165       0.00459421
  7720.4       0.629108       0.829108       0.629108       0.629108       0.175036      -0.160421
  7720.65       0.669653       0.869653       0.669653       0.669653       0.172824       0.116745
  7720.88       0.714394       0.914394       0.714394       0.714394       0.247481       0.098405
  7721.13       0.769341       0.969341       0.769341       0.769341       0.156553      -0.11493
  7721.38       0.81597        1.01597       0.81597       0.81597       0.238255       0.274759
  7721.61       0.876396        2.26083       0.876507        2.06094       0.245678      -0.144255
  7721.86       0.93243        2.228       0.93293        2.0285       0.259169      -0.0739312
  7722.1       0.982557        2.19678       0.983432        1.99765       0.162467       0.0370717
  7722.36        1.03754        2.16458        1.03881        1.96585       0.214521      -0.181655
  7722.59        1.07761        2.13531        1.07925        1.93694       0.152038      -0.215968
  7722.85        1.10737        2.10434        1.10939        1.90637       0.117936       0.188292
  7723.05        1.14051        2.07967        1.14285        1.88201       0.163048      -0.106036
  7723.41        1.1883        2.03781        1.1912        1.84071       0.12034      -0.0220062
  7723.8        1.23796        1.99264        1.24147        1.79615       0.105061      -0.153408
  7724.2        1.26389        1.94836        1.26801        1.75249       0.0139319  -0.153439
  7724.59        1.26561        1.90585        1.27035        1.71058       0.0186252  -0.0348551
  7725.01        1.26174        1.86235        1.26712        1.66774      -0.0347909  -0.0334522
  7726.51        1.20093        1.71722        1.20864        1.52493      -0.0456384   0.00157914
  7728.07        1.14158        1.58465        1.15171        1.39478      -0.0364293   0.00495353
  7729.59        1.09501        1.47184        1.10751        1.28434      -0.00956316   0.0187247
  7731.15        1.09193        1.37318        1.10684        1.18809      -0.00187198   0.00260867
  7732.68        1.09511        1.29072        1.1124        1.10801      -0.00731751  -0.007869
  7734.21        1.07981        1.22171        1.09948        1.04138       0.00020913  -0.000657238
  7735.77        1.06267        1.16432        1.08477       0.986411      -0.016623   0.00612253
  7737.31        1.06051        1.11935        1.08499       0.943821      -0.00604802  -0.0127754
  7738.84        1.02817        1.08455        1.05503       0.911399      -0.0175212   0.00689265
  7740.39        1.01201        1.05868        1.04126       0.887932      -0.0150939  -0.00694583
  7741.95       0.978853        1.04065        1.01053       0.87233      -0.0240307  -0.000111955
  7746.97       0.870645        1.0243       0.910108       0.863765      -0.0158937   0.00172933
  7751.94       0.806485        1.0405       0.853655       0.887668      -0.0110479   0.00103834
  7756.95       0.767747        1.05842       0.822697       0.913369      -0.00085045   0.00261563
  7761.95       0.79417        1.07283       0.856876       0.935537       0.00763977   0.00122431
  7766.97       0.85165        1.08404       0.922144       0.954539       0.0110041  -0.000137947
  7771.99       0.905716        1.09221       0.984003       0.9705       0.0110407  -0.00109835
  7777       0.931996        1.09752        1.01806       0.983587       0.0022057  -0.000702677
  7784.15       0.938987        1.10062        1.03615       0.99778      -0.0040755  -0.00059279
  7791.28       0.915807        1.09899        1.02404        1.00722       0.000700616   0.000253434
  7798.44       0.905557        1.09323        1.02489        1.01257      -0.0034275  -0.000271277
  7805.61       0.881343        1.08393        1.01182        1.0144      -0.00324057   0.000133467
  7812.81       0.863976        1.07167        1.00561        1.01331      -5.5277e-05  -5.88441e-05
  7819.99       0.843599        1.05712       0.996388        1.00991      -0.00354909   5.47759e-05
  7827.22       0.825957        1.04077       0.989965        1.00478      -0.00432611   2.58045e-05
  7834.44       0.809692        1.02339       0.984896       0.99859       0.000897502  -5.57358e-05
  7841.69       0.790415        1.00546       0.976873       0.991916      -0.00182355   0.000841298
  7845.32       0.802937       0.996512       0.995029       0.988604       0.00344959   0.00145266

File: Ir0_5Hz_ReaddMean_VPhsCorrect_29_-134_mV_.csv.nor
# XDI/1.0 Athena/0.9.26
# Element.edge:                  K
# Element.symbol:                Co
# Column.1:                      energy eV
# Column.2:                      norm
# Column.3:                      nbkg
# Column.4:                      flat
# Column.5:                      fbkg
# Column.6:                      nder
# Column.7:                      nsec
# Athena.e0:                     7721.54
# Athena.eshift:                 0
# Athena.rbkg:                   1.0
# Athena.importance:             1
# Athena.standard:               None
# Athena.bkg_kweight:            3
# Athena.edge_step:              1.19384
# Athena.fixed_step:             no
# Athena.pre_edge_range:         -82.964 -19.904
# Athena.pre_edge_line:          0.131834 + 0.000197462 * E
# Athena.normalization_range:    45 125.256
# Athena.post_edge_polynomial:   15.6401 - 0.00165637 * E + 0 * E^2 + 0 * E^3
# Athena.spline_range_energy:    0.000 125.180
# Athena.clamps:                 0 24
# Athena.spline_range_k:         0.000 5.732
# Athena.kweight:                2
# Athena.window:                 hanning
# Athena.phase_correction:       no
# Athena.k_range:                .4 5.35
# Athena.dk:                     .5
# Athena.r_range:                .4 5.1
# Athena.dr:                     .5
# Athena.window:                 hanning
# Athena.plot_multiplier:        1
# Athena.y_offset:               0.2
# ///
#------------------------
#   e         norm        nbkg        flat        fbkg        nder        nsec
  7600.07      -0.212958      -0.0129583  -0.212958      -0.212958       0.0120393  -0.000496751
  7624.56      -0.0467605   0.15324      -0.0467605  -0.0467605   0.00293312  -0.000207436
  7649.7      -0.0146443   0.185356      -0.0146443  -0.0146443  -0.000342197   9.59989e-05
  7674.73       0.0774111   0.277411       0.0774111   0.0774111   0.00022428  -0.000281535
  7700.01      -0.00848817   0.191512      -0.00848817  -0.00848817   0.000345529   0.000890753
  7700.72      -0.00265151   0.197348      -0.00265151  -0.00265151   0.00499023  -0.0198049
  7701.43      -0.00643709   0.193563      -0.00643709  -0.00643709   0.00166463   0.0159416
  7702.15      -0.00189836   0.198102      -0.00189836  -0.00189836  -0.00424372  -0.0162401
  7702.88      -0.00577112   0.194229      -0.00577112  -0.00577112  -0.00154817   0.00446098
  7703.6      -0.00728952   0.19271      -0.00728952  -0.00728952   0.0029427   0.015734
  7704.32      -0.000614591   0.199385      -0.000614591  -0.000614591   0.00326765  -0.0151998
  7705.02      -0.00188521   0.198115      -0.00188521  -0.00188521  -0.00344225   0.00118563
  7705.75      -0.00261815   0.197382      -0.00261815  -0.00261815   0.0166392   0.0377959
  7706.47       0.0166039   0.216604       0.0166039   0.0166039   0.028335   0.00442207
  7707.2       0.038211   0.238211       0.038211   0.038211   0.0266774  -0.0164623
  7707.91       0.051046   0.251046       0.051046   0.051046   0.00240096  -0.0202551
  7708.65       0.0533902   0.25339       0.0533902   0.0533902   0.00236376  -0.0141987
  7709.29       0.0490363   0.249036       0.0490363   0.0490363   0.0010691   0.0214
  7709.9       0.0529466   0.252947       0.0529466   0.0529466  -0.0064383  -0.031248
  7710.51       0.0451022   0.245102       0.0451022   0.0451022  -0.00566829   0.0179249
  7711.11       0.0439922   0.243992       0.0439922   0.0439922   0.00747345   0.0110927
  7711.73       0.0468979   0.246898       0.0468979   0.0468979  -0.00534545  -0.00584281
  7712.33       0.0475836   0.247584       0.0475836   0.0475836  -0.0072553  -0.00135334
  7712.95       0.0477668   0.247767       0.0477668   0.0477668   0.0184055   0.0430786
  7713.54       0.0628335   0.262833       0.0628335   0.0628335   0.0456543   0.0600407
  7714.16       0.101995       0.301995       0.101995       0.101995       0.0748883   0.00722366
  7714.78       0.143463       0.343463       0.143463       0.143463       0.0453857  -0.0413617
  7715.39       0.169169       0.369169       0.169169       0.169169       0.0506095  -0.00418079
  7715.97       0.192451       0.392451       0.192451       0.192451       0.0212799  -0.0232846
  7716.26       0.200618       0.400618       0.200618       0.200618       0.0361528   0.0383343
  7716.5       0.209811       0.409811       0.209811       0.209811       0.0710966   0.109262
  7716.73       0.225095       0.425095       0.225095       0.225095       0.0612624  -0.093064
  7716.99       0.235889       0.435889       0.235889       0.235889       0.0413047   0.0667071
  7717.23       0.250085       0.450085       0.250085       0.250085       0.0253195   0.042108
  7717.46       0.265754       0.465754       0.265754       0.265754       0.0794999  -0.0980644
  7717.71       0.276838       0.476838       0.276838       0.276838       0.0810673   0.278163
  7717.96       0.305397       0.505397       0.305397       0.305397       0.0965525  -0.132412
  7718.21       0.325941       0.525941       0.325941       0.325941       0.0956599   0.0221259
  7718.44       0.346888       0.546888       0.346888       0.346888       0.0691935  -0.0583765
  7718.69       0.365746       0.565746       0.365746       0.365746       0.118104       0.268157
  7718.94       0.399048       0.599048       0.399048       0.399048       0.10093      -0.0641459
  7719.17       0.427107       0.627107       0.427107       0.427107       0.12691       0.0263167
  7719.42       0.459197       0.659196       0.459196       0.459196       0.18884       0.159713
  7719.67       0.499794       0.699794       0.499794       0.499794       0.127016      -0.109736
  7719.9       0.532052       0.732052       0.532052       0.532052       0.155105       0.253254
  7720.15       0.582543       0.782543       0.582543       0.582543       0.218707       0.0267842
  7720.4       0.632555       0.832555       0.632555       0.632555       0.17062      -0.178876
  7720.65       0.672711       0.872711       0.672711       0.672711       0.174734       0.139724
  7720.88       0.718426       0.918426       0.718426       0.718426       0.241685       0.0486945
  7721.13       0.771316       0.971316       0.771316       0.771316       0.166141      -0.0588313
  7721.38       0.819168        1.01917       0.819168       0.819168       0.234254       0.24716
  7721.61       0.879118        2.25777       0.87923        2.05788       0.248052      -0.146911
  7721.86       0.934482        2.22506       0.934982        2.02556       0.257721      -0.0466869
  7722.1       0.985475        2.19393       0.98635        1.99481       0.166141       0.00721871
  7722.36        1.03946        2.16183        1.04073        1.9631       0.207601      -0.149193
  7722.59        1.08053        2.13265        1.08217        1.93429       0.149256      -0.256862
  7722.85        1.10883        2.10179        1.11086        1.90382       0.118155       0.222276
  7723.05        1.14243        2.07719        1.14477        1.87954       0.165861      -0.135291
  7723.41        1.18835        2.03547        1.19125        1.83837       0.113261      -0.0126326
  7723.8        1.23738        1.99045        1.24089        1.79396       0.105214      -0.15344
  7724.2        1.26267        1.94631        1.26679        1.75044       0.0143208  -0.145587
  7724.59        1.26498        1.90393        1.26972        1.70867       0.0165321  -0.0408326
  7725.01        1.26075        1.86057        1.26614        1.66596      -0.0347957  -0.0314487
  7726.51        1.20147        1.7159        1.20919        1.52361      -0.0444985   0.000621906
  7728.07        1.14135        1.58375        1.15149        1.39389      -0.0360126   0.0061075
  7729.59        1.09672        1.47129        1.10922        1.2838      -0.010118   0.0179312
  7731.15        1.09373        1.37294        1.10865        1.18786      -0.00184803   0.00172761
  7732.68        1.09491        1.29073        1.11221        1.10803      -0.00807589  -0.00710976
  7734.21        1.07938        1.22192        1.09906        1.0416       0.000538288  -0.000600704
  7735.77        1.06215        1.1647        1.08425       0.986803      -0.0165531   0.00634624
  7737.31        1.06043        1.11985        1.08492       0.944341      -0.00584279  -0.0127708
  7738.84        1.02854        1.08514        1.05541       0.912013      -0.0177702   0.00604418
  7740.39        1.01082        1.05934        1.04009       0.88861      -0.0148299  -0.00553354
  7741.95       0.979499        1.04135        1.01119       0.873046      -0.0236487  -0.000504447
  7746.97       0.870693        1.02498       0.91018       0.864464      -0.0162651   0.00179859
  7751.94       0.807662        1.04105       0.85486       0.888245      -0.0108865   0.000957708
  7756.95       0.768041        1.05883       0.823025       0.913818      -0.000538639   0.00264761
  7761.95       0.794379        1.07313       0.857125       0.935873       0.00748155   0.00121591
  7766.97       0.851562        1.08424       0.922099       0.954773       0.0109191  -0.000100951
  7771.99       0.906259        1.09231       0.984594       0.970647       0.0108273  -0.0011313
  7777       0.932338        1.09755        1.01845       0.983661       0.00219205  -0.000698062
  7784.15       0.939243        1.10055        1.03646       0.997769      -0.00399608  -0.000621491
  7791.28       0.914517        1.09885        1.02281        1.00715       0.000705327   0.000308451
  7798.44       0.905537        1.09306        1.02494        1.01247      -0.00356866  -0.000282427
  7805.61       0.882027        1.08374        1.01258        1.01429      -0.00319955   0.000100118
  7812.81       0.863639        1.07149        1.00536        1.01322       8.48282e-05  -3.04982e-05
  7819.99       0.843705        1.05697       0.996587        1.00985      -0.00360045   5.47481e-05
  7827.22       0.826507        1.04068       0.990615        1.00479      -0.00448542   3.2468e-05
  7834.44       0.811032        1.02337       0.986343       0.998684       0.00103144  -0.000104199
  7841.69       0.790001        1.00555       0.976574       0.992118      -0.00182003   0.000882318
  7845.32       0.802727       0.996659       0.994936       0.988868       0.00350569   0.00146714