Folder: Xray-Project/Dynamic XAS/Dynamic XAS Energy analyzed data/ESweep_0_5 Hz/Same Eo/Normalized Spectra (part 19)

File: Ir0_5Hz_ReaddMean_VPhsCorrect_39_-242_mV_.csv.nor
# XDI/1.0 Athena/0.9.26
# Element.edge:                  K
# Element.symbol:                Co
# Column.1:                      energy eV
# Column.2:                      norm
# Column.3:                      nbkg
# Column.4:                      flat
# Column.5:                      fbkg
# Column.6:                      nder
# Column.7:                      nsec
# Athena.e0:                     7721.54
# Athena.eshift:                 0
# Athena.rbkg:                   1.0
# Athena.importance:             1
# Athena.standard:               None
# Athena.bkg_kweight:            3
# Athena.edge_step:              1.19341
# Athena.fixed_step:             no
# Athena.pre_edge_range:         -82.964 -19.904
# Athena.pre_edge_line:          -0.015496 + 0.00021668 * E
# Athena.normalization_range:    45 125.256
# Athena.post_edge_polynomial:   15.6267 - 0.00165455 * E + 0 * E^2 + 0 * E^3
# Athena.spline_range_energy:    0.000 125.180
# Athena.clamps:                 0 24
# Athena.spline_range_k:         0.000 5.732
# Athena.kweight:                2
# Athena.window:                 hanning
# Athena.phase_correction:       no
# Athena.k_range:                .4 5.35
# Athena.dk:                     .5
# Athena.r_range:                .4 5.1
# Athena.dr:                     .5
# Athena.window:                 hanning
# Athena.plot_multiplier:        1
# Athena.y_offset:               0.2
# ///
#------------------------
#   e         norm        nbkg        flat        fbkg        nder        nsec
  7600.07      -0.21211      -0.0121105  -0.21211      -0.21211       0.0121322  -0.000502712
  7624.56      -0.0451809   0.154819      -0.0451809  -0.0451809   0.00285883  -0.000212613
  7649.7      -0.0157707   0.184229      -0.0157707  -0.0157707  -0.000325576   0.000106215
  7674.73       0.0799838   0.279984       0.0799838   0.0799838   0.000182408  -0.000293579
  7700.01      -0.00983178   0.190168      -0.00983178  -0.00983178   0.000440022   0.0011166
  7700.72      -0.00201425   0.197986      -0.00201425  -0.00201425   0.00405452  -0.0253918
  7701.43      -0.00653053   0.193469      -0.00653053  -0.00653053   0.00155301   0.01694
  7702.15      -0.0022053   0.197795      -0.0022053  -0.0022053  -0.00328906  -0.0169343
  7702.88      -0.00665279   0.193347      -0.00665279  -0.00665279  -0.00317808   0.00862116
  7703.6      -0.00656293   0.193437      -0.00656293  -0.00656293   0.00153742   0.0109286
  7704.32      -0.000775764   0.199224      -0.000775764  -0.000775764   0.00492156  -0.0144895
  7705.02      -0.00253904   0.197461      -0.00253904  -0.00253904  -0.00311274   0.00508477
  7705.75      -0.00181606   0.198184      -0.00181606  -0.00181606   0.0166095   0.0323804
  7706.47       0.0159898   0.21599       0.0159898   0.0159898   0.0309029   0.0111175
  7707.2       0.0396648   0.239665       0.0396648   0.0396648   0.0258129  -0.0209474
  7707.91       0.0522096   0.25221       0.0522096   0.0522096   0.00327411  -0.0238689
  7708.65       0.0523486   0.252349       0.0523486   0.0523486  -0.000661887  -0.0111947
  7709.29       0.0474102   0.24741       0.0474102   0.0474102  -0.000817483   0.0255977
  7709.9       0.052344   0.252344       0.052344   0.052344  -0.00179397  -0.035898
  7710.51       0.0437724   0.243772       0.0437724   0.0437724  -0.00772941   0.0255235
  7711.11       0.0447179   0.244718       0.0447179   0.0447179   0.0119258   0.00921501
  7711.73       0.0490716   0.249072       0.0490716   0.0490716  -0.00314933  -0.00998062
  7712.33       0.0496419   0.249642       0.0496419   0.0496419  -0.00602441   0.0115807
  7712.95       0.0546393   0.254639       0.0546393   0.0546393   0.0206578   0.0324573
  7713.54       0.0705761   0.270576       0.0705761   0.0705761   0.0445095   0.0582375
  7714.16       0.10997       0.30997       0.10997       0.10997       0.0777994   0.0104341
  7714.78       0.152888       0.352888       0.152888       0.152888       0.0522656  -0.0516185
  7715.39       0.176236       0.376236       0.176236       0.176236       0.0462621   0.0186006
  7715.97       0.205166       0.405166       0.205166       0.205166       0.0337071  -0.0767473
  7716.26       0.208995       0.408995       0.208995       0.208995       0.0307467   0.203147
  7716.5       0.223696       0.423696       0.223696       0.223696       0.0607761   0.0283534
  7716.73       0.239474       0.439474       0.239474       0.239474       0.0522954  -0.0634282
  7716.99       0.252672       0.452672       0.252672       0.252672       0.0446091  -0.10341
  7717.23       0.259424       0.459424       0.259424       0.259424       0.0617068   0.301461
  7717.46       0.282925       0.482925       0.282925       0.282925       0.0631176  -0.227467
  7717.71       0.294724       0.494724       0.294724       0.294724       0.0984766   0.1761
  7717.96       0.317625       0.517625       0.317625       0.317625       0.073945   0.107972
  7718.21       0.346321       0.546321       0.346321       0.346321       0.12172      -0.194808
  7718.44       0.362106       0.562106       0.362106       0.362106       0.0759999   0.169677
  7718.69       0.389509       0.589509       0.389509       0.389509       0.0915944  -0.0623861
  7718.94       0.412416       0.612416       0.412416       0.412416       0.142547       0.320138
  7719.17       0.452929       0.652929       0.452929       0.452929       0.126519      -0.288458
  7719.42       0.479269       0.679269       0.479269       0.479269       0.155053       0.178542
  7719.67       0.515349       0.715349       0.515349       0.515349       0.135226       0.134837
  7719.9       0.557831       0.757831       0.557831       0.557831       0.190526      -0.0351623
  7720.15       0.601379       0.801379       0.601379       0.601379       0.215756       0.0679952
  7720.4       0.647056       0.847056       0.647056       0.647056       0.142747      -0.0871196
  7720.65       0.688459       0.888459       0.688459       0.688459       0.182341       0.319666
  7720.88       0.745822       0.945822       0.745822       0.745822       0.212767      -0.23817
  7721.13       0.793413       0.993413       0.793413       0.793413       0.207804       0.0206789
  7721.38       0.84069        1.04069       0.84069       0.84069       0.219142       0.253786
  7721.61       0.900489        2.22883       0.900602        2.02894       0.216969      -0.158983
  7721.86       0.954952        2.19691       0.955457        1.99741       0.264746      -0.0793286
  7722.1        1.00326        2.16654        1.00414        1.96742       0.133477      -0.0394269
  7722.36        1.05143        2.13522        1.05272        1.9365       0.208906      -0.129693
  7722.59        1.0883        2.10675        1.08995        1.9084       0.140861      -0.226145
  7722.85        1.11396        2.07663        1.11601        1.87868       0.10758       0.182896
  7723.05        1.14354        2.05264        1.14591        1.85501       0.143966      -0.115827
  7723.41        1.18426        2.01193        1.18719        1.81486       0.103887      -0.00665677
  7723.8        1.22844        1.968        1.23198        1.77154       0.0926575  -0.13578
  7724.2        1.25161        1.92493        1.25577        1.7291       0.0221669  -0.132868
  7724.59        1.25381        1.88358        1.2586        1.68836       0.00986019  -0.0387612
  7725.01        1.2498        1.84128        1.25524        1.64671      -0.0323  -0.0291672
  7726.51        1.19453        1.70011        1.20232        1.5079      -0.0416767   0.00036458
  7728.07        1.13794        1.57116        1.14817        1.3814      -0.0348172   0.00596749
  7729.59        1.09643        1.46142        1.10906        1.27405      -0.0114817   0.0139768
  7731.15        1.08727        1.36544        1.10233        1.18051      -0.00379487   0.00478459
  7732.68        1.08965        1.28521        1.10712        1.10268      -0.00747697  -0.0066627
  7734.21        1.07638        1.21806        1.09625        1.03793      -0.000292505  -0.00211545
  7735.77        1.05782        1.16221        1.08014       0.984525      -0.0145838   0.0078889
  7737.31        1.05849        1.11843        1.08321       0.943155      -0.00444117  -0.0145393
  7738.84        1.02481        1.08454        1.05195       0.911672      -0.017613   0.00781593
  7740.39        1.0095        1.05934        1.03905       0.888897      -0.0151313  -0.00776124
  7741.95       0.975235        1.04177        1.00724       0.873772      -0.0239004   0.000138246
  7746.97       0.867601        1.02573       0.907473       0.865603      -0.0157277   0.00187549
  7751.94       0.80764        1.04137       0.855298       0.889031      -0.0105638   0.000943543
  7756.95       0.770763        1.05872       0.826283       0.914242      -0.000601758   0.00256542
  7761.95       0.797793        1.07269       0.86115       0.936045       0.00783427   0.00111886
  7766.97       0.853216        1.08356       0.924442       0.954785       0.0103465  -8.33365e-05
  7771.99       0.906594        1.09148       0.985694       0.970578       0.0109944  -0.0012111
  7777       0.929349        1.09662        1.0163       0.983573       0.00167739  -0.000584159
  7784.15       0.936456        1.09956        1.03462       0.997733      -0.00399819  -0.000536141
  7791.28       0.916273        1.09787        1.02563        1.00722       0.000814661   0.000163146
  7798.44       0.904397        1.09207        1.02497        1.01264      -0.00339062  -0.0002735
  7805.61       0.878439        1.08272        1.01026        1.01454      -0.00324503   0.000176924
  7812.81       0.861571        1.07035        1.00468        1.01345      -2.21055e-05  -3.7459e-05
  7819.99       0.842795        1.05558       0.997168        1.00995      -0.00345714   2.89337e-05
  7827.22       0.825415        1.03886       0.991123        1.00457      -0.00470307   2.50366e-05
  7834.44       0.809371        1.0209       0.986392       0.997926       0.00106414  -5.78552e-05
  7841.69       0.790204        1.00215       0.978596       0.990547      -0.00194522   0.000729944
  7845.32       0.799847       0.992691       0.99393       0.986774       0.00265643   0.00126767

File: Ir0_5Hz_ReaddMean_VPhsCorrect_40_-232_mV_.csv.nor
# XDI/1.0 Athena/0.9.26
# Element.edge:                  K
# Element.symbol:                Co
# Column.1:                      energy eV
# Column.2:                      norm
# Column.3:                      nbkg
# Column.4:                      flat
# Column.5:                      fbkg
# Column.6:                      nder
# Column.7:                      nsec
# Athena.e0:                     7721.54
# Athena.eshift:                 0
# Athena.rbkg:                   1.0
# Athena.importance:             1
# Athena.standard:               None
# Athena.bkg_kweight:            3
# Athena.edge_step:              1.19298
# Athena.fixed_step:             no
# Athena.pre_edge_range:         -82.964 -19.904
# Athena.pre_edge_line:          0.020046 + 0.000212042 * E
# Athena.normalization_range:    45 125.256
# Athena.post_edge_polynomial:   15.5644 - 0.00164657 * E + 0 * E^2 + 0 * E^3
# Athena.spline_range_energy:    0.000 125.180
# Athena.clamps:                 0 24
# Athena.spline_range_k:         0.000 5.732
# Athena.kweight:                2
# Athena.window:                 hanning
# Athena.phase_correction:       no
# Athena.k_range:                .4 5.35
# Athena.dk:                     .5
# Athena.r_range:                .4 5.1
# Athena.dr:                     .5
# Athena.window:                 hanning
# Athena.plot_multiplier:        1
# Athena.y_offset:               0.2
# ///
#------------------------
#   e         norm        nbkg        flat        fbkg        nder        nsec
  7600.07      -0.212972      -0.0129723  -0.212972      -0.212972       0.012212  -0.000508218
  7624.56      -0.0455144   0.154486      -0.0455144  -0.0455144   0.00286325  -0.000213733
  7649.7      -0.0163092   0.183691      -0.0163092  -0.0163092  -0.000316271   0.000107316
  7674.73       0.0799306   0.279931       0.0799306   0.0799306   0.000197534  -0.000293983
  7700.01      -0.00965157   0.190348      -0.00965157  -0.00965157   0.000355729   0.0010409
  7700.72      -0.00252822   0.197472      -0.00252822  -0.00252822   0.00529547  -0.0223208
  7701.43      -0.00624486   0.193755      -0.00624486  -0.00624486   0.00013349   0.0137629
  7702.15      -0.0027786   0.197221      -0.0027786  -0.0027786  -0.00300856  -0.0138878
  7702.88      -0.00650719   0.193493      -0.00650719  -0.00650719  -0.00211276   0.00646917
  7703.6      -0.00682942   0.193171      -0.00682941  -0.00682941   0.000839195   0.0117641
  7704.32      -0.0010211   0.198979      -0.0010211  -0.0010211   0.00520091  -0.0126972
  7705.02      -0.00185977   0.19814      -0.00185977  -0.00185977  -0.00314898   0.00234028
  7705.75      -0.00155545   0.198445      -0.00155545  -0.00155545   0.0166572   0.0333189
  7706.47       0.016331   0.216331       0.016331   0.016331   0.0313251   0.01197
  7707.2       0.0405315   0.240531       0.0405315   0.0405315   0.0257978  -0.0229004
  7707.91       0.0525778   0.252578       0.0525778   0.0525778   0.00326349  -0.0221483
  7708.65       0.0531194   0.253119       0.0531194   0.0531194  -0.000556931  -0.0129337
  7709.29       0.0477494   0.247749       0.0477494   0.0477494  -0.0013415   0.0266839
  7709.9       0.0526813   0.252681       0.0526813   0.0526813  -0.00134164  -0.0360666
  7710.51       0.0440445   0.244044       0.0440445   0.0440445  -0.00807402   0.0266966
  7711.11       0.045353   0.245353       0.045353   0.045353   0.0113122   0.00806873
  7711.73       0.0496643   0.249664       0.0496643   0.0496643  -0.00191194  -0.0115903
  7712.33       0.049593   0.249593       0.049593   0.049593  -0.00534243   0.0153493
  7712.95       0.055373   0.255373       0.055373   0.055373   0.0184027   0.0277929
  7713.54       0.0704357   0.270436       0.0704357   0.0704357   0.0455945   0.059301
  7714.16       0.109308       0.309308       0.109308       0.109308       0.0783165   0.0159339
  7714.78       0.153801       0.353801       0.153801       0.153801       0.0517537  -0.0567843
  7715.39       0.176796       0.376796       0.176796       0.176796       0.048715   0.0201037
  7715.97       0.205909       0.405909       0.205909       0.205909       0.0319937  -0.0659451
  7716.26       0.211253       0.411253       0.211253       0.211253       0.0308176   0.153067
  7716.5       0.224451       0.424451       0.224451       0.224451       0.0633576   0.0556349
  7716.73       0.240402       0.440402       0.240402       0.240402       0.050038  -0.0621587
  7716.99       0.253869       0.453869       0.253869       0.253869       0.0399617  -0.113636
  7717.23       0.260293       0.460293       0.260293       0.260293       0.0677627   0.331309
  7717.46       0.28519       0.48519       0.28519       0.28519       0.0582824  -0.265233
  7717.71       0.296233       0.496233       0.296233       0.296233       0.0978272   0.162456
  7717.96       0.31752       0.51752       0.31752       0.31752       0.0810392   0.17835
  7718.21       0.348644       0.548644       0.348644       0.348644       0.116426      -0.255096
  7718.44       0.36315       0.56315       0.36315       0.36315       0.0809368   0.204553
  7718.69       0.391335       0.591335       0.391335       0.391335       0.0928596  -0.0876578
  7718.94       0.413571       0.613571       0.413571       0.413571       0.140607       0.334297
  7719.17       0.454267       0.654267       0.454267       0.454267       0.125456      -0.276539
  7719.42       0.481538       0.681538       0.481538       0.481538       0.150901       0.155888
  7719.67       0.517209       0.717209       0.517209       0.517209       0.138552       0.118303
  7719.9       0.558319       0.758319       0.558319       0.558319       0.194307      -0.00148603
  7720.15       0.602486       0.802486       0.602486       0.602486       0.216634       0.079707
  7720.4       0.649419       0.849419       0.649419       0.649419       0.140787      -0.135201
  7720.65       0.689129       0.889129       0.689129       0.689129       0.186511       0.336234
  7720.88       0.745873       0.945873       0.745873       0.745873       0.209632      -0.197637
  7721.13       0.795332       0.995332       0.795332       0.795332       0.198428       0.0110545
  7721.38       0.843866        1.04387       0.843866       0.843866       0.226056       0.211279
  7721.61       0.90234        2.22894       0.902452        2.02905       0.213894      -0.148152
  7721.86       0.956043        2.19704       0.956544        1.99755       0.266867      -0.0846137
  7722.1        1.00332        2.1667        1.0042        1.96758       0.134273       0.00343391
  7722.36        1.05316        2.13541        1.05443        1.93669       0.202729      -0.17257
  7722.59        1.08901        2.10696        1.09065        1.9086       0.143258      -0.206575
  7722.85        1.1148        2.07687        1.11683        1.87891       0.104705       0.176813
  7723.05        1.14418        2.0529        1.14653        1.85525       0.146014      -0.119386
  7723.41        1.18425        2.01223        1.18716        1.81513       0.103681      -0.00432284
  7723.8        1.22806        1.96833        1.23158        1.77185       0.0929825  -0.122551
  7724.2        1.25295        1.9253        1.25709        1.72944       0.0196344  -0.153506
  7724.59        1.25364        1.88398        1.25839        1.68873       0.00777329  -0.024976
  7725.01        1.25028        1.84171        1.25568        1.64712      -0.0318201  -0.0311852
  7726.51        1.19453        1.70066        1.20226        1.5084      -0.0408974   0.000738534
  7728.07        1.13836        1.57181        1.14852        1.38198      -0.0341168   0.00564387
  7729.59        1.09651        1.46216        1.10906        1.2747      -0.0115452   0.0144382
  7731.15        1.0881        1.36624        1.10306        1.18121      -0.00402099   0.00406042
  7732.68        1.08949        1.28607        1.10684        1.10342      -0.00756256  -0.00624742
  7734.21        1.0762        1.21895        1.09594        1.0387      -0.000448943  -0.00172591
  7735.77        1.05855        1.16313        1.08072       0.985306      -0.0146532   0.00774472
  7737.31        1.05977        1.11937        1.08434       0.943938      -0.00434204  -0.0147937
  7738.84        1.02605        1.08549        1.053       0.912449      -0.0174746   0.00749319
  7740.39        1.00992        1.06029        1.03928       0.889659      -0.0151583  -0.00699838
  7741.95       0.976672        1.04271        1.00847       0.874512      -0.0237273  -0.000108085
  7746.97       0.868238        1.02662       0.907856       0.866238      -0.0156921   0.00187855
  7751.94       0.80756        1.04219       0.854915       0.889542      -0.010767   0.00101725
  7756.95       0.771809        1.05947       0.826974       0.91464      -0.000421511   0.00252249
  7761.95       0.798893        1.07339       0.861845       0.936346       0.00769862   0.0010833
  7766.97       0.853472        1.08423       0.924242       0.955005       0.0103779  -7.44789e-05
  7771.99       0.906227        1.09214       0.984821       0.97073       0.0109769  -0.00110465
  7777       0.93104        1.09727        1.01744       0.983672       0.00147206  -0.000685719
  7784.15       0.936674        1.10023        1.03422       0.997776      -0.00378332  -0.000521713
  7791.28       0.915756        1.09857        1.02441        1.00723       0.000830727   0.000209797
  7798.44       0.905536        1.09283        1.02534        1.01263      -0.00344314  -0.00029815
  7805.61       0.879973        1.08354        1.01096        1.01453      -0.00322667   0.00017393
  7812.81       0.863347        1.07126        1.00554        1.01345      -3.79008e-05  -6.99254e-05
  7819.99       0.843138        1.05658       0.996525        1.00996      -0.00339866   4.92465e-05
  7827.22       0.825376        1.03995       0.990026        1.0046      -0.00465078   5.26412e-05
  7834.44       0.810387        1.02209       0.986278       0.997981       0.000921207  -7.24181e-05
  7841.69       0.791516        1.00343       0.978705       0.990623      -0.00182874   0.000730958
  7845.32       0.801334       0.994014       0.994178       0.986859       0.00270455   0.00124884