Folder: Xray-Project/Dynamic XAS/Dynamic XAS Energy analyzed data/ESweep_0_5 Hz/Same Eo/Normalized Spectra (part 6)

File: Ir0_5Hz_ReaddMean_VPhsCorrect_11_248_mV_.csv.nor
# XDI/1.0 Athena/0.9.26
# Element.edge:                  K
# Element.symbol:                Co
# Column.1:                      energy eV
# Column.2:                      norm
# Column.3:                      nbkg
# Column.4:                      flat
# Column.5:                      fbkg
# Column.6:                      nder
# Column.7:                      nsec
# Athena.e0:                     7721.54
# Athena.eshift:                 0
# Athena.rbkg:                   1.0
# Athena.importance:             1
# Athena.standard:               None
# Athena.bkg_kweight:            3
# Athena.edge_step:              1.1947
# Athena.fixed_step:             no
# Athena.pre_edge_range:         -82.964 -19.904
# Athena.pre_edge_line:          0.235193 + 0.000184057 * E
# Athena.normalization_range:    45 125.256
# Athena.post_edge_polynomial:   15.7087 - 0.00166516 * E + 0 * E^2 + 0 * E^3
# Athena.spline_range_energy:    0.000 125.180
# Athena.clamps:                 0 24
# Athena.spline_range_k:         0.000 5.732
# Athena.kweight:                2
# Athena.window:                 hanning
# Athena.phase_correction:       no
# Athena.k_range:                .4 5.35
# Athena.dk:                     .5
# Athena.r_range:                .4 5.1
# Athena.dr:                     .5
# Athena.window:                 hanning
# Athena.plot_multiplier:        1
# Athena.y_offset:               0.2
# ///
#------------------------
#   e         norm        nbkg        flat        fbkg        nder        nsec
  7600.07      -0.214794      -0.014794  -0.214794      -0.214794       0.0121351  -0.000505086
  7624.56      -0.0484068   0.151593      -0.0484068  -0.0484068   0.00296195  -0.000205322
  7649.7      -0.0146847   0.185315      -0.0146847  -0.0146847  -0.000321411   9.3503e-05
  7674.73       0.0774077   0.277408       0.0774077   0.0774077   0.000172449  -0.000282026
  7700.01      -0.00876627   0.191234      -0.00876627  -0.00876627   0.000397798   0.000941231
  7700.72      -0.00247002   0.19753      -0.00247002  -0.00247002   0.00552978  -0.0210388
  7701.43      -0.0063947   0.193605      -0.0063947  -0.0063947   0.00202861   0.0158591
  7702.15      -0.00203952   0.19796      -0.00203952  -0.00203952  -0.004925  -0.0170977
  7702.88      -0.00654179   0.193458      -0.00654179  -0.00654179  -0.00243983   0.00703018
  7703.6      -0.00734042   0.19266      -0.00734042  -0.00734042   0.00331436   0.0139215
  7704.32      -0.000886526   0.199113      -0.000886526  -0.000886526   0.00391835  -0.016393
  7705.02      -0.00297109   0.197029      -0.00297109  -0.00297109  -0.0048493   0.0026118
  7705.75      -0.00383626   0.196164      -0.00383626  -0.00383626   0.0163587   0.0366779
  7706.47       0.0146648   0.214665       0.0146648   0.0146648   0.0287419   0.0101341
  7707.2       0.0385254   0.238525       0.0385254   0.0385254   0.025998  -0.0233445
  7707.91       0.0500028   0.250003       0.0500028   0.0500028   0.00542714  -0.0146572
  7708.65       0.0539253   0.253925       0.0539253   0.0539253  -0.000686813  -0.0203539
  7709.29       0.0481792   0.248179       0.0481792   0.0481792   0.00276449   0.0276085
  7709.9       0.053101   0.253101       0.053101   0.053101  -0.00452176  -0.0358183
  7710.51       0.0445475   0.244548       0.0445475   0.0445475  -0.00862793   0.016686
  7711.11       0.0422979   0.242298       0.0422979   0.0422979   0.0074545   0.0157801
  7711.73       0.0457347   0.245735       0.0457347   0.0457347  -0.00551805  -0.0123295
  7712.33       0.0445261   0.244526       0.0445261   0.0445261  -0.0107094   0.00820409
  7712.95       0.0464219   0.246422       0.0464219   0.0464219   0.0188788   0.0345162
  7713.54       0.0601442   0.260144       0.0601442   0.0601442   0.0423427   0.0603574
  7714.16       0.0979963   0.297996       0.0979963   0.0979963   0.0731767   0.00760015
  7714.78       0.138312       0.338312       0.138312       0.138312       0.0488715  -0.0464059
  7715.39       0.161014       0.361014       0.161014       0.161014       0.0442214   0.00745725
  7715.97       0.185451       0.385451       0.185451       0.185451       0.0296053  -0.0439565
  7716.26       0.191443       0.391443       0.191443       0.191443       0.0241944   0.153161
  7716.5       0.205205       0.405205       0.205205       0.205205       0.0629348  -0.022284
  7716.73       0.217083       0.417083       0.217083       0.217083       0.0529087   0.0162835
  7716.99       0.231053       0.431053       0.231053       0.231053       0.0404261  -0.0525255
  7717.23       0.241464       0.441464       0.241464       0.241464       0.0536362   0.162421
  7717.46       0.260456       0.460456       0.260456       0.260456       0.0600552  -0.240053
  7717.71       0.266617       0.466617       0.266617       0.266617       0.0851441   0.328689
  7717.96       0.293371       0.493371       0.293371       0.293371       0.0733912  -0.024462
  7718.21       0.318301       0.518301       0.318301       0.318301       0.110023      -0.130303
  7718.44       0.334338       0.534338       0.334338       0.334338       0.0616348   0.113137
  7718.69       0.358521       0.558521       0.358521       0.358521       0.0986628   0.0201961
  7718.94       0.382978       0.582978       0.382978       0.382978       0.129078       0.226741
  7719.17       0.419532       0.619532       0.419532       0.419532       0.122907      -0.253606
  7719.42       0.443707       0.643707       0.443707       0.443707       0.170294       0.271704
  7719.67       0.483081       0.683081       0.483081       0.483081       0.117673       0.0181056
  7719.9       0.52177       0.72177       0.52177       0.52177       0.181306       0.0200091
  7720.15       0.564669       0.764669       0.564669       0.564669       0.225395       0.140965
  7720.4       0.613853       0.813853       0.613853       0.613853       0.137173      -0.162176
  7720.65       0.654196       0.854196       0.654196       0.654196       0.174755       0.277655
  7720.88       0.70812       0.90812       0.70812       0.70812       0.242361      -0.157638
  7721.13       0.757015       0.957015       0.757015       0.757015       0.202569       0.0382042
  7721.38       0.80656        1.00656       0.80656       0.80656       0.214695       0.251164
  7721.61       0.86835        2.27067       0.868462        2.07078       0.260675      -0.101916
  7721.86       0.928433        2.23756       0.928931        2.03806       0.248557      -0.129794
  7722.1       0.979368        2.20607       0.980241        2.00694       0.172796      -0.0317703
  7722.36        1.0308        2.17359        1.03206        1.97486       0.219617      -0.026701
  7722.59        1.07679        2.14407        1.07842        1.9457       0.157734      -0.333913
  7722.85        1.10561        2.11283        1.10763        1.91486       0.12839       0.275896
  7723.05        1.14219        2.08795        1.14453        1.89029       0.168285      -0.190376
  7723.41        1.18831        2.04573        1.1912        1.84862       0.126479      -0.00437204
  7723.8        1.23883        2.00017        1.24233        1.80367       0.102437      -0.135617
  7724.2        1.26843        1.95551        1.27254        1.75962       0.0306887  -0.157036
  7724.59        1.27323        1.91262        1.27796        1.71735       0.00894451  -0.0478673
  7725.01        1.27048        1.86876        1.27584        1.67412      -0.0316524  -0.0382369
  7726.51        1.20701        1.72237        1.2147        1.53006      -0.0471235   0.000125616
  7728.07        1.14132        1.58865        1.15142        1.39875      -0.0401419   0.00841501
  7729.59        1.09661        1.47485        1.10907        1.28732      -0.00805375   0.0169275
  7731.15        1.09117        1.37533        1.10604        1.1902      -0.00194782   0.0050783
  7732.68        1.09792        1.29215        1.11516        1.10939      -0.00678468  -0.00946566
  7734.21        1.08244        1.22252        1.10206        1.04214      -0.00238406  -0.00162934
  7735.77        1.06279        1.16462        1.08482       0.986657      -0.0160472   0.00740256
  7737.31        1.06123        1.11925        1.08564       0.943657      -0.00487319  -0.0128855
  7738.84        1.02923        1.08413        1.05602       0.910915      -0.017569   0.00689846
  7740.39        1.01343        1.05803        1.0426       0.887203      -0.0144071  -0.00767903
  7741.95       0.97886        1.03983        1.01045       0.871426      -0.0245307   0.000133637
  7746.97       0.870186        1.02331       0.909546       0.862667      -0.0161068   0.00173113
  7751.94       0.805609        1.03964       0.852655       0.886687      -0.0108876   0.00102229
  7756.95       0.766046        1.05775       0.820854       0.912556      -0.00113114   0.00264066
  7761.95       0.79227        1.07235       0.854814       0.934896       0.0078455   0.00121291
  7766.97       0.849262        1.08376       0.919573       0.954069       0.0110779   3.47455e-06
  7771.99       0.906387        1.09211       0.984471       0.970198       0.0112184  -0.00124147
  7777       0.932115        1.09761        1.01795       0.983444       0.00209266  -0.000660031
  7784.15       0.94017        1.10093        1.03708       0.997837      -0.00410568  -0.000601181
  7791.28       0.917624        1.09949        1.02557        1.00744       0.000711938   0.000235997
  7798.44       0.907115        1.09387        1.02614        1.01289      -0.00323297  -0.000299796
  7805.61       0.881178        1.08463        1.01131        1.01477      -0.00340325   0.000182843
  7812.81       0.864638        1.07236        1.00591        1.01363       0.000107252  -8.84507e-05
  7819.99       0.843559        1.05771       0.99595        1.0101      -0.00375062   5.31783e-05
  7827.22       0.825128        1.04115       0.988709        1.00473      -0.00435468   8.346e-05
  7834.44       0.811074        1.02342       0.985822       0.998172       0.000865761  -0.000100313
  7841.69       0.791677        1.00502       0.97765       0.990997      -0.0017199   0.00080384
  7845.32       0.803151       0.995787       0.994743       0.987379       0.00316111   0.00134463

File: Ir0_5Hz_ReaddMean_VPhsCorrect_12_250_mV_.csv.nor
# XDI/1.0 Athena/0.9.26
# Element.edge:                  K
# Element.symbol:                Co
# Column.1:                      energy eV
# Column.2:                      norm
# Column.3:                      nbkg
# Column.4:                      flat
# Column.5:                      fbkg
# Column.6:                      nder
# Column.7:                      nsec
# Athena.e0:                     7721.54
# Athena.eshift:                 0
# Athena.rbkg:                   1.0
# Athena.importance:             1
# Athena.standard:               None
# Athena.bkg_kweight:            3
# Athena.edge_step:              1.19491
# Athena.fixed_step:             no
# Athena.pre_edge_range:         -82.964 -19.904
# Athena.pre_edge_line:          0.280266 + 0.000178211 * E
# Athena.normalization_range:    45 125.256
# Athena.post_edge_polynomial:   15.7012 - 0.00166416 * E + 0 * E^2 + 0 * E^3
# Athena.spline_range_energy:    0.000 125.180
# Athena.clamps:                 0 24
# Athena.spline_range_k:         0.000 5.732
# Athena.kweight:                2
# Athena.window:                 hanning
# Athena.phase_correction:       no
# Athena.k_range:                .4 5.35
# Athena.dk:                     .5
# Athena.r_range:                .4 5.1
# Athena.dr:                     .5
# Athena.window:                 hanning
# Athena.plot_multiplier:        1
# Athena.y_offset:               0.2
# ///
#------------------------
#   e         norm        nbkg        flat        fbkg        nder        nsec
  7600.07      -0.214984      -0.0149838  -0.214984      -0.214984       0.0121083  -0.000504429
  7624.56      -0.049083   0.150917      -0.049083  -0.049083   0.00297639  -0.000203609
  7649.7      -0.0147165   0.185283      -0.0147165  -0.0147165  -0.000308521   9.18149e-05
  7674.73       0.0769609   0.276961       0.076961   0.076961   0.000189937  -0.00028007
  7700.01      -0.00838956   0.19161      -0.00838956  -0.00838956   0.000350401   0.000933511
  7700.72      -0.00214168   0.197858      -0.00214168  -0.00214168   0.00462496  -0.022125
  7701.43      -0.00664554   0.193354      -0.00664554  -0.00664554   0.00242098   0.0170167
  7702.15      -0.00226759   0.197732      -0.00226759  -0.00226759  -0.00424469  -0.017439
  7702.88      -0.00692412   0.193076      -0.00692412  -0.00692412  -0.0027916   0.00848483
  7703.6      -0.00711389   0.192886      -0.00711389  -0.00711389   0.00306054   0.0125448
  7704.32      -0.000765418   0.199235      -0.000765418  -0.000765418   0.0048574  -0.016587
  7705.02      -0.00304894   0.196951      -0.00304894  -0.00304894  -0.00519909   0.00457986
  7705.75      -0.0031271   0.196873      -0.0031271  -0.0031271   0.0155559   0.0342624
  7706.47       0.0148786   0.214879       0.0148786   0.0148786   0.0287844   0.0104904
  7707.2       0.0384274   0.238427       0.0384274   0.0384274   0.0263108  -0.0232843
  7707.91       0.0496271   0.249627       0.0496271   0.0496271   0.00587132  -0.0136587
  7708.65       0.0537949   0.253795       0.0537949   0.0537949  -0.00106728  -0.0202818
  7709.29       0.0482975   0.248298       0.0482975   0.0482975   0.00383583   0.0273124
  7709.9       0.0533447   0.253345       0.0533447   0.0533447  -0.00562852  -0.0363849
  7710.51       0.0447032   0.244703       0.0447032   0.0447032  -0.00872122   0.0170872
  7711.11       0.0425138   0.242514       0.0425138   0.0425138   0.00787007   0.0140943
  7711.73       0.0453965   0.245397       0.0453965   0.0453965  -0.00623185  -0.0139476
  7712.33       0.0430389   0.243039       0.0430389   0.0430389  -0.0116335   0.0124782
  7712.95       0.0453926   0.245393       0.0453926   0.0453926   0.0191235   0.035103
  7713.54       0.0597499   0.25975       0.0597499   0.0597499   0.042579   0.0582121
  7714.16       0.0974522   0.297452       0.0974522   0.0974522   0.0729704   0.00848189
  7714.78       0.137955       0.337955       0.137955       0.137955       0.0502811  -0.0494062
  7715.39       0.159733       0.359733       0.159733       0.159733       0.0409508   0.0123884
  7715.97       0.184994       0.384994       0.184994       0.184994       0.0320454  -0.0532199
  7716.26       0.19016       0.39016       0.19016       0.19016       0.0259397   0.184797
  7716.5       0.204985       0.404985       0.204985       0.204985       0.0583271  -0.0670505
  7716.73       0.215232       0.415232       0.215232       0.215232       0.0552835   0.064847
  7716.99       0.230484       0.430484       0.230484       0.230484       0.0386947  -0.10601
  7717.23       0.23906       0.43906       0.23906       0.23906       0.0540809   0.214665
  7717.46       0.259316       0.459316       0.259316       0.259316       0.0537625  -0.251002
  7717.71       0.266189       0.466189       0.266189       0.266189       0.0839211   0.290443
  7717.96       0.29127       0.49127       0.29127       0.29127       0.0766374   0.0156555
  7718.21       0.316843       0.516843       0.316843       0.316843       0.109943      -0.154781
  7718.44       0.332034       0.532034       0.332034       0.332034       0.0683991   0.141258
  7718.69       0.357045       0.557045       0.357045       0.357045       0.0904466   0.00114837
  7718.94       0.381228       0.581228       0.381228       0.381228       0.136179       0.238028
  7719.17       0.418176       0.618176       0.418176       0.418176       0.123528      -0.274067
  7719.42       0.441527       0.641527       0.441527       0.441527       0.161716       0.286581
  7719.67       0.48096       0.68096       0.48096       0.48096       0.117841       0.00395802
  7719.9       0.518865       0.718865       0.518865       0.518865       0.186856       0.0373761
  7720.15       0.562       0.762       0.562       0.562       0.22036       0.138106
  7720.4       0.611249       0.811249       0.611249       0.611249       0.137941      -0.165158
  7720.65       0.651474       0.851474       0.651474       0.651474       0.172561       0.297531
  7720.88       0.706445       0.906445       0.706445       0.706445       0.243565      -0.186575
  7721.13       0.754666       0.954666       0.754666       0.754666       0.2066       0.0634935
  7721.38       0.805007        1.00501       0.805007       0.805007       0.217544       0.240874
  7721.61       0.866944        2.27024       0.867055        2.07035       0.254144      -0.107176
  7721.86       0.926861        2.23716       0.927358        2.03765       0.255357      -0.12559
  7722.1       0.977871        2.20568       0.978741        2.00655       0.168843      -0.0150191
  7722.36        1.03045        2.17323        1.03171        1.97449       0.220234      -0.0598492
  7722.59        1.07554        2.14372        1.07716        1.94534       0.163477      -0.303966
  7722.85        1.10523        2.11251        1.10725        1.91452       0.12748       0.253317
  7723.05        1.14145        2.08764        1.14378        1.88997       0.168313      -0.166513
  7723.41        1.18909        2.04545        1.19197        1.84833       0.129997      -0.00731334
  7723.8        1.24084        1.99992        1.24433        1.8034       0.098725  -0.15092
  7724.2        1.26927        1.95528        1.27337        1.75938       0.0338433  -0.158386
  7724.59        1.27271        1.91242        1.27741        1.71713       0.0145252  -0.0280558
  7725.01        1.27174        1.86858        1.27709        1.67393      -0.0321228  -0.0439132
  7726.51        1.2068        1.72228        1.21445        1.52994      -0.0491938   0.00100258
  7728.07        1.14172        1.58864        1.15178        1.39871      -0.0394562   0.00802565
  7729.59        1.0967        1.47491        1.10912        1.28733      -0.0084482   0.0172873
  7731.15        1.0918        1.37544        1.10661        1.19025      -0.00192567   0.00459775
  7732.68        1.09794        1.2923        1.11511        1.10947      -0.00719006  -0.00908928
  7734.21        1.08272        1.2227        1.10227        1.04225      -0.00190101  -0.00180981
  7735.77        1.06292        1.16483        1.08487       0.986778      -0.0158245   0.0072774
  7737.31        1.0609        1.11947        1.08522       0.943785      -0.00517908  -0.012424
  7738.84        1.02954        1.08436        1.05622       0.911041      -0.0174506   0.00673192
  7740.39        1.01397        1.05826        1.04303       0.887322      -0.0143053  -0.00806914
  7741.95       0.97871        1.04006        1.01018       0.871533      -0.0243934   0.000335832
  7746.97       0.871137        1.02351       0.910345       0.862714      -0.0161205   0.00164164
  7751.94       0.805428        1.0398       0.852292       0.886667      -0.0109683   0.00108219
  7756.95       0.766224        1.05789       0.82082       0.91249      -0.00107122   0.00261391
  7761.95       0.792141        1.0725       0.854442       0.934805       0.00781312   0.00126867
  7766.97       0.850234        1.08393       0.920273       0.953973       0.0111723  -0.000110413
  7771.99       0.905604        1.09233       0.983386       0.970112       0.0109954  -0.00113791
  7777       0.932189        1.09787        1.0177       0.98338       0.00222856  -0.00067668
  7784.15       0.940745        1.10129        1.03728       0.99782      -0.00401474  -0.000624253
  7791.28       0.917525        1.09994        1.02506        1.00747       0.000910336   0.000248707
  7798.44       0.906992        1.09442        1.02555        1.01298      -0.00364569  -0.000277073
  7805.61       0.882198        1.08527        1.01183        1.0149      -0.00325845   0.000143946
  7812.81       0.86479        1.07306        1.00551        1.01379       0.000103128  -4.55371e-05
  7819.99       0.845059        1.05844       0.99686        1.01024      -0.00366629   1.85981e-05
  7827.22       0.826178        1.04187       0.989125        1.00482      -0.00440253   7.62943e-05
  7834.44       0.811301        1.02409       0.985373       0.998164       0.000823511  -7.8339e-05
  7841.69       0.792232        1.00557       0.977485       0.990825      -0.00170954   0.000794746
  7845.32       0.803632       0.996249       0.994482       0.987099       0.00314036   0.00133606