Folder: Xray-Project/Dynamic XAS/Dynamic XAS Energy analyzed data/ESweep_0_5 Hz/Same Eo/Normalized Spectra (part 15)

File: Ir0_5Hz_ReaddMean_VPhsCorrect_30_-159_mV_.csv.nor
# XDI/1.0 Athena/0.9.26
# Element.edge:                  K
# Element.symbol:                Co
# Column.1:                      energy eV
# Column.2:                      norm
# Column.3:                      nbkg
# Column.4:                      flat
# Column.5:                      fbkg
# Column.6:                      nder
# Column.7:                      nsec
# Athena.e0:                     7721.54
# Athena.eshift:                 0
# Athena.rbkg:                   1.0
# Athena.importance:             1
# Athena.standard:               None
# Athena.bkg_kweight:            3
# Athena.edge_step:              1.19315
# Athena.fixed_step:             no
# Athena.pre_edge_range:         -82.964 -19.904
# Athena.pre_edge_line:          0.117912 + 0.000199265 * E
# Athena.normalization_range:    45 125.256
# Athena.post_edge_polynomial:   15.5628 - 0.00164644 * E + 0 * E^2 + 0 * E^3
# Athena.spline_range_energy:    0.000 125.180
# Athena.clamps:                 0 24
# Athena.spline_range_k:         0.000 5.732
# Athena.kweight:                2
# Athena.window:                 hanning
# Athena.phase_correction:       no
# Athena.k_range:                .4 5.35
# Athena.dk:                     .5
# Athena.r_range:                .4 5.1
# Athena.dr:                     .5
# Athena.window:                 hanning
# Athena.plot_multiplier:        1
# Athena.y_offset:               0.2
# ///
#------------------------
#   e         norm        nbkg        flat        fbkg        nder        nsec
  7600.07      -0.21276      -0.01276  -0.21276      -0.21276       0.0120768  -0.00050434
  7624.56      -0.0476093   0.152391      -0.0476093  -0.0476093   0.00291065  -0.000204479
  7649.7      -0.0145934   0.185407      -0.0145934  -0.0145934  -0.000353713   9.55004e-05
  7674.73       0.0780458   0.278046       0.0780458   0.0780458   0.0002131  -0.000283609
  7700.01      -0.00858137   0.191419      -0.00858137  -0.00858137   0.00038401   0.000909106
  7700.72      -0.00259522   0.197405      -0.00259522  -0.00259522   0.00557602  -0.0201048
  7701.43      -0.00637648   0.193624      -0.00637648  -0.00637648   0.00105889   0.015249
  7702.15      -0.00219645   0.197804      -0.00219645  -0.00219645  -0.00436859  -0.0144649
  7702.88      -0.00550787   0.194492      -0.00550787  -0.00550787  -0.000929327   0.00253741
  7703.6      -0.00747555   0.192524      -0.00747555  -0.00747555   0.00227299   0.0163971
  7704.32      -0.000906758   0.199093      -0.000906758  -0.000906758   0.00299589  -0.0158989
  7705.02      -0.00263188   0.197368      -0.00263188  -0.00263188  -0.00350511   0.00422176
  7705.75      -0.00230551   0.197694      -0.00230551  -0.00230551   0.0172802   0.0350883
  7706.47       0.0165367   0.216537       0.0165367   0.0165367   0.0291682   0.00700066
  7707.2       0.0391065   0.239106       0.0391065   0.0391065   0.0258322  -0.01838
  7707.91       0.0518952   0.251895       0.0518952   0.0518952   0.00337499  -0.0210886
  7708.65       0.0537518   0.253752       0.0537518   0.0537518   0.00142758  -0.0140056
  7709.29       0.0490557   0.249056       0.0490557   0.0490557   0.00176285   0.0212167
  7709.9       0.0525712   0.252571       0.0525712   0.0525712  -0.00599131  -0.0286707
  7710.51       0.0453017   0.245302       0.0453017   0.0453017  -0.0063459   0.0161285
  7711.11       0.0440977   0.244098       0.0440977   0.0440977   0.00824364   0.0119596
  7711.73       0.0472228   0.247223       0.0472228   0.0472228  -0.00633673  -0.00608125
  7712.33       0.0480358   0.248036       0.0480358   0.0480358  -0.00615705  -0.00186047
  7712.95       0.0481555   0.248156       0.0481555   0.0481555   0.0187203   0.0439139
  7713.54       0.063451   0.263451       0.063451   0.063451   0.0465063   0.0625025
  7714.16       0.103804       0.303804       0.103804       0.103804       0.0734553   0.00186713
  7714.78       0.144414       0.344414       0.144414       0.144414       0.047074  -0.0381402
  7715.39       0.170463       0.370463       0.170463       0.170463       0.0494408  -0.00323115
  7715.97       0.194406       0.394406       0.194406       0.194406       0.0246294  -0.0367115
  7716.26       0.201117       0.401117       0.201117       0.201117       0.0310382   0.0923035
  7716.5       0.212083       0.412083       0.212083       0.212083       0.0741789   0.0733583
  7716.73       0.226942       0.426942       0.226942       0.226942       0.0582677  -0.0755817
  7716.99       0.238375       0.438375       0.238375       0.238375       0.0447913   0.0580942
  7717.23       0.25269       0.45269       0.25269       0.25269       0.0250282   0.0330115
  7717.46       0.267952       0.467952       0.267952       0.267952       0.0789829  -0.0941918
  7717.71       0.278828       0.478828       0.278828       0.278828       0.0864776   0.301425
  7717.96       0.30863       0.50863       0.30863       0.30863       0.0868716  -0.176819
  7718.21       0.327864       0.527864       0.327864       0.327864       0.102797       0.064753
  7718.44       0.350104       0.550104       0.350104       0.350104       0.0663155  -0.0819141
  7718.69       0.368894       0.568894       0.368894       0.368894       0.11785       0.254715
  7718.94       0.401374       0.601374       0.401374       0.401374       0.105544      -0.0290045
  7719.17       0.430694       0.630694       0.430694       0.430694       0.129263      -0.00975475
  7719.42       0.461944       0.661944       0.461944       0.461944       0.188483       0.153446
  7719.67       0.501359       0.701359       0.501359       0.501359       0.118961      -0.0622408
  7719.9       0.535311       0.735311       0.535311       0.535311       0.158732       0.208086
  7720.15       0.584814       0.784814       0.584814       0.584814       0.223619       0.0525508
  7720.4       0.635336       0.835336       0.635336       0.635336       0.169324      -0.196897
  7720.65       0.674897       0.874897       0.674897       0.674897       0.172156       0.177739
  7720.88       0.72227       0.92227       0.72227       0.72227       0.239162       0.000189348
  7721.13       0.773924       0.973924       0.773924       0.773924       0.177897      -0.0334498
  7721.38       0.822034        1.02203       0.822034       0.822034       0.225415       0.240382
  7721.61       0.881828        2.25268       0.88194        2.05279       0.256639      -0.144399
  7721.86       0.937177        2.22013       0.937675        2.02063       0.244651      -0.0600184
  7722.1       0.987413        2.18918       0.988286        1.99005       0.165608       0.00215692
  7722.36        1.04028        2.15725        1.04154        1.95851       0.207983      -0.0884698
  7722.59        1.08393        2.12822        1.08556        1.92985       0.148347      -0.355168
  7722.85        1.10891        2.09752        1.11093        1.89954       0.113735       0.326465
  7723.05        1.14481        2.07306        1.14715        1.8754       0.169164      -0.211453
  7723.41        1.18784        2.03156        1.19072        1.83445       0.108842       0.0084308
  7723.8        1.23689        1.98677        1.24038        1.79027       0.10143      -0.15806
  7724.2        1.26146        1.94286        1.26557        1.74697       0.018953  -0.143979
  7724.59        1.26333        1.9007        1.26805        1.70542       0.00947893  -0.0270432
  7725.01        1.26087        1.85758        1.26624        1.66294      -0.0334204  -0.0358012
  7726.51        1.2019        1.71366        1.20959        1.52134      -0.0433521   1.30259e-05
  7728.07        1.14061        1.58218        1.1507        1.39228      -0.0354796   0.0072879
  7729.59        1.09757        1.47029        1.11003        1.28275      -0.0102422   0.0169067
  7731.15        1.09379        1.37242        1.10866        1.18728      -0.00258138   0.00178763
  7732.68        1.09433        1.29061        1.11156        1.10784      -0.00862842  -0.00609812
  7734.21        1.08054        1.22212        1.10014        1.04173       0.000353423  -0.00204745
  7735.77        1.06161        1.16516        1.08363       0.987177      -0.0165063   0.00709772
  7737.31        1.06002        1.1205        1.08441       0.944895      -0.0050561  -0.0122159
  7738.84        1.02957        1.08592        1.05634       0.912692      -0.0178293   0.0052375
  7740.39        1.01138        1.06021        1.04054       0.889364      -0.0146827  -0.00517477
  7741.95       0.980458        1.04226        1.01203       0.873833      -0.0233903  -0.000639676
  7746.97       0.870687        1.02581       0.910024       0.865147      -0.0164246   0.00185283
  7751.94       0.808047        1.04166       0.855065       0.888683      -0.0106159   0.00093649
  7756.95       0.768288        1.05928       0.823063       0.914051      -0.000599829   0.00266193
  7761.95       0.794846        1.07346       0.857353       0.935965       0.00740696   0.00118417
  7766.97       0.851447        1.08451       0.921716       0.954779       0.0107535  -4.08645e-05
  7771.99       0.907067        1.09258       0.985105       0.970613       0.010779  -0.00115489
  7777       0.933475        1.09784        1.01926       0.983624       0.00219726  -0.000717206
  7784.15       0.940016        1.10092        1.03687       0.997774      -0.00388254  -0.000630574
  7791.28       0.914466        1.09934        1.02235        1.00723       0.000687292   0.000338932
  7798.44       0.906223        1.09367        1.02518        1.01262      -0.00354953  -0.000298453
  7805.61       0.882629        1.08445        1.01268        1.0145      -0.00314837   0.000101686
  7812.81       0.864238        1.07224        1.00542        1.01343      -4.11664e-05  -2.68807e-05
  7819.99       0.844487        1.0577       0.996788        1.01      -0.00356665   3.97188e-05
  7827.22       0.82669        1.04128       0.990173        1.00476      -0.00434043   4.35361e-05
  7834.44       0.811191        1.0237       0.985835       0.998347       0.000981267  -8.31915e-05
  7841.69       0.791241        1.00545       0.977104       0.991314      -0.0019435   0.000818205
  7845.32       0.802818       0.996284       0.994296       0.987762       0.00318921   0.00141397

File: Ir0_5Hz_ReaddMean_VPhsCorrect_31_-182_mV_.csv.nor
# XDI/1.0 Athena/0.9.26
# Element.edge:                  K
# Element.symbol:                Co
# Column.1:                      energy eV
# Column.2:                      norm
# Column.3:                      nbkg
# Column.4:                      flat
# Column.5:                      fbkg
# Column.6:                      nder
# Column.7:                      nsec
# Athena.e0:                     7721.54
# Athena.eshift:                 0
# Athena.rbkg:                   1.0
# Athena.importance:             1
# Athena.standard:               None
# Athena.bkg_kweight:            3
# Athena.edge_step:              1.19317
# Athena.fixed_step:             no
# Athena.pre_edge_range:         -82.964 -19.904
# Athena.pre_edge_line:          0.099930 + 0.000201589 * E
# Athena.normalization_range:    45 125.256
# Athena.post_edge_polynomial:   15.5584 - 0.00164588 * E + 0 * E^2 + 0 * E^3
# Athena.spline_range_energy:    0.000 125.180
# Athena.clamps:                 0 24
# Athena.spline_range_k:         0.000 5.732
# Athena.kweight:                2
# Athena.window:                 hanning
# Athena.phase_correction:       no
# Athena.k_range:                .4 5.35
# Athena.dk:                     .5
# Athena.r_range:                .4 5.1
# Athena.dr:                     .5
# Athena.window:                 hanning
# Athena.plot_multiplier:        1
# Athena.y_offset:               0.2
# ///
#------------------------
#   e         norm        nbkg        flat        fbkg        nder        nsec
  7600.07      -0.212453      -0.0124533  -0.212453      -0.212453       0.0121242  -0.000510334
  7624.56      -0.0476923   0.152308      -0.0476923  -0.0476923   0.00289299  -0.000204386
  7649.7      -0.0150147   0.184985      -0.0150147  -0.0150147  -0.000373405   9.71665e-05
  7674.73       0.0783305   0.278331       0.0783305   0.0783305   0.000212373  -0.000285475
  7700.01      -0.00876923   0.191231      -0.00876923  -0.00876923   0.000433525   0.000984571
  7700.72      -0.00209773   0.197902      -0.00209773  -0.00209773   0.0047175  -0.0224412
  7701.43      -0.00632884   0.193671      -0.00632884  -0.00632884   0.000383101   0.0165827
  7702.15      -0.00190334   0.198097      -0.00190334  -0.00190334  -0.00361912  -0.0149327
  7702.88      -0.00521113   0.194789      -0.00521113  -0.00521113  -0.00179343   0.00210027
  7703.6      -0.00740431   0.192596      -0.00740431  -0.00740431   0.0035268   0.016872
  7704.32      -0.000814693   0.199185      -0.000814693  -0.000814693   0.00271913  -0.0172922
  7705.02      -0.00322289   0.196777      -0.00322289  -0.00322289  -0.00382209   0.00725439
  7705.75      -0.00207872   0.197921      -0.00207872  -0.00207872   0.0175486   0.0319176
  7706.47       0.0159   0.2159       0.0159   0.0159   0.0295258   0.0116651
  7707.2       0.0400342   0.240034       0.0400342   0.0400342   0.0255046  -0.0217823
  7707.91       0.0525984   0.252598       0.0525984   0.0525984   0.00404947  -0.0214957
  7708.65       0.0540116   0.254012       0.0540116   0.0540116   0.000367028  -0.0135412
  7709.29       0.0491347   0.249135       0.0491347   0.0491347   0.00233439   0.0201346
  7709.9       0.0520708   0.252071       0.0520708   0.0520708  -0.00598835  -0.0271445
  7710.51       0.0447975   0.244797       0.0447975   0.0447975  -0.00671694   0.0178729
  7711.11       0.0442238   0.244224       0.0442238   0.0442238   0.00832287   0.0108239
  7711.73       0.0475881   0.247588       0.0475881   0.0475881  -0.00568752  -0.00615018
  7712.33       0.0486112   0.248611       0.0486112   0.0486112  -0.00537471  -0.000876465
  7712.95       0.0493202   0.24932       0.0493202   0.0493202   0.0183897   0.0431309
  7713.54       0.0649011   0.264901       0.0649011   0.0649011   0.0469793   0.0615484
  7714.16       0.105191       0.305191       0.105191       0.105191       0.0733024   0.000212295
  7714.78       0.145109       0.345109       0.145109       0.145109       0.047504  -0.0364923
  7715.39       0.171084       0.371084       0.171084       0.171084       0.0497018  -0.00124194
  7715.97       0.195645       0.395646       0.195646       0.195646       0.0250368  -0.0390841
  7716.26       0.202342       0.402342       0.202342       0.202342       0.0287688   0.101132
  7716.5       0.213791       0.413791       0.213791       0.213791       0.0755714   0.069786
  7716.73       0.228902       0.428902       0.228902       0.228902       0.0566041  -0.0681832
  7716.99       0.241075       0.441075       0.241075       0.241075       0.0493184   0.0306442
  7717.23       0.254528       0.454528       0.254528       0.254528       0.0281904   0.0510638
  7717.46       0.270014       0.470013       0.270014       0.270014       0.0778078  -0.0989541
  7717.71       0.280845       0.480845       0.280845       0.280845       0.0869102   0.30053
  7717.96       0.310547       0.510547       0.310547       0.310547       0.080366  -0.166503
  7718.21       0.330271       0.530272       0.330272       0.330272       0.108694       0.0644999
  7718.44       0.352964       0.552964       0.352964       0.352964       0.0666172  -0.0801745
  7718.69       0.372348       0.572348       0.372348       0.372348       0.111957       0.223518
  7718.94       0.40364       0.60364       0.40364       0.40364       0.111867       0.0042922
  7719.17       0.433766       0.633766       0.433766       0.433766       0.131707      -0.0424593
  7719.42       0.463889       0.663889       0.463889       0.463889       0.186325       0.173281
  7719.67       0.503355       0.703355       0.503355       0.503355       0.116582      -0.0411816
  7719.9       0.538608       0.738608       0.538608       0.538608       0.165265       0.15939
  7720.15       0.586481       0.786481       0.586481       0.586481       0.222505       0.0668902
  7720.4       0.636249       0.836249       0.636249       0.636249       0.164977      -0.147328
  7720.65       0.678111       0.878111       0.678111       0.678111       0.170775       0.141966
  7720.88       0.725553       0.925553       0.725553       0.725553       0.243149      -0.0149322
  7721.13       0.776334       0.976334       0.776334       0.776334       0.179307      -0.0204536
  7721.38       0.824343        1.02434       0.824343       0.824343       0.220424       0.241128
  7721.61       0.884086        2.24615       0.884197        2.04626       0.263371      -0.134394
  7721.86       0.939989        2.21381       0.940488        2.01431       0.235734      -0.0959486
  7722.1       0.988764        2.18304       0.989637        1.98391       0.159638       0.0100116
  7722.36        1.0406        2.15131        1.04186        1.95257       0.210202      -0.0472342
  7722.59        1.08574        2.12246        1.08738        1.92409       0.148552      -0.409718
  7722.85        1.10895        2.09195        1.11098        1.89397       0.111733       0.380595
  7723.05        1.14602        2.06763        1.14836        1.86997       0.164789      -0.251575
  7723.41        1.18743        2.02638        1.19032        1.82927       0.109137       0.0187374
  7723.8        1.23626        1.98187        1.23976        1.78537       0.0982797  -0.160181
  7724.2        1.26029        1.93823        1.2644        1.74234       0.0214129  -0.146297
  7724.59        1.26124        1.89632        1.26597        1.70105       0.00866003  -0.008204
  7725.01        1.26091        1.85346        1.26628        1.65883      -0.0323955  -0.0421804
  7726.51        1.20066        1.7104        1.20835        1.51809      -0.0440594   0.000924358
  7728.07        1.14028        1.57972        1.15038        1.38982      -0.0345957   0.00658959
  7729.59        1.09651        1.46848        1.10897        1.28095      -0.0104447   0.0169427
  7731.15        1.09206        1.37118        1.10693        1.18606      -0.00248112   0.00235535
  7732.68        1.09329        1.28984        1.11054        1.10708      -0.00850816  -0.00557573
  7734.21        1.08143        1.22173        1.10105        1.04136      -0.00029195  -0.00351319
  7735.77        1.06094        1.16508        1.08298       0.987118      -0.0163846   0.00778623
  7737.31        1.05948        1.12065        1.0839       0.94507      -0.00434293  -0.0122445
  7738.84        1.02909        1.08625        1.05588       0.913038      -0.0176852   0.00545818
  7740.39        1.01148        1.06064        1.04067       0.889827      -0.0150467  -0.00538375
  7741.95       0.980641        1.04276        1.01225       0.874364      -0.0237346  -0.000694982
  7746.97       0.870227        1.02627       0.909601       0.865648      -0.0161013   0.00187631
  7751.94       0.807533        1.04192       0.854596       0.888982      -0.0106229   0.000987759
  7756.95       0.769007        1.05934       0.823833       0.914171      -0.000763892   0.00262115
  7761.95       0.795778        1.0734       0.858343       0.935962       0.00747123   0.00117474
  7766.97       0.852354        1.08437       0.922689       0.9547       0.0106223  -6.69989e-05
  7771.99       0.907296        1.09239       0.985406       0.970497       0.0108906  -0.00112126
  7777       0.933872        1.09764        1.01974       0.983503       0.00211547  -0.00073798
  7784.15       0.939753        1.10075        1.03669       0.997687      -0.00390356  -0.000584067
  7791.28       0.915908        1.09921        1.02389        1.0072       0.000720256   0.000255229
  7798.44       0.905084        1.09359        1.02415        1.01266      -0.00343301  -0.000247029
  7805.61       0.88154        1.08441        1.01172        1.01458      -0.00317686   0.00013205
  7812.81       0.86477        1.0722        1.00609        1.01352      -0.000125188  -8.82785e-05
  7819.99       0.843472        1.05758       0.995915        1.01002      -0.00354788   7.54194e-05
  7827.22       0.825982        1.041       0.989618        1.00464      -0.0041874   4.44378e-05
  7834.44       0.810836        1.02316       0.985644       0.997973       0.000900963  -6.67996e-05
  7841.69       0.792103        1.00451       0.97814       0.990549      -0.00204955   0.000739684
  7845.32       0.80222       0.995086       0.993877       0.986743       0.00278696   0.00133237