Folder: Xray-Project/Dynamic XAS/Dynamic XAS Energy analyzed data/ESweep_0_5 Hz/Same Eo/Normalized Spectra (part 23)

File: Ir0_5Hz_ReaddMean_VPhsCorrect_47_-77_mV_.csv.nor
# XDI/1.0 Athena/0.9.26
# Element.edge:                  K
# Element.symbol:                Co
# Column.1:                      energy eV
# Column.2:                      norm
# Column.3:                      nbkg
# Column.4:                      flat
# Column.5:                      fbkg
# Column.6:                      nder
# Column.7:                      nsec
# Athena.e0:                     7721.54
# Athena.eshift:                 0
# Athena.rbkg:                   1.0
# Athena.importance:             1
# Athena.standard:               None
# Athena.bkg_kweight:            3
# Athena.edge_step:              1.19237
# Athena.fixed_step:             no
# Athena.pre_edge_range:         -82.964 -19.904
# Athena.pre_edge_line:          -0.017779 + 0.00021696 * E
# Athena.normalization_range:    45 125.256
# Athena.post_edge_polynomial:   15.5784 - 0.00164844 * E + 0 * E^2 + 0 * E^3
# Athena.spline_range_energy:    0.000 125.180
# Athena.clamps:                 0 24
# Athena.spline_range_k:         0.000 5.732
# Athena.kweight:                2
# Athena.window:                 hanning
# Athena.phase_correction:       no
# Athena.k_range:                .4 5.35
# Athena.dk:                     .5
# Athena.r_range:                .4 5.1
# Athena.dr:                     .5
# Athena.window:                 hanning
# Athena.plot_multiplier:        1
# Athena.y_offset:               0.2
# ///
#------------------------
#   e         norm        nbkg        flat        fbkg        nder        nsec
  7600.07      -0.216216      -0.0162156  -0.216216      -0.216216       0.0127086  -0.00054524
  7624.56      -0.0461829   0.153817      -0.0461829  -0.0461829   0.00277969  -0.000215385
  7649.7      -0.0154378   0.184562      -0.0154378  -0.0154378  -0.000364493   0.000105425
  7674.73       0.0811518   0.281152       0.0811519   0.0811519   0.000226556  -0.000295652
  7700.01      -0.00913717   0.190863      -0.00913717  -0.00913717   0.000430849   0.00100173
  7700.72      -0.00239624   0.197604      -0.00239625  -0.00239625   0.00438049  -0.0217728
  7701.43      -0.00623093   0.193769      -0.00623093  -0.00623093   3.97534e-05   0.0142658
  7702.15      -0.00262014   0.19738      -0.00262014  -0.00262014  -0.00309026  -0.0125826
  7702.88      -0.00552603   0.194474      -0.00552603  -0.00552603  -0.000663433   0.000165013
  7703.6      -0.00833338   0.191667      -0.00833338  -0.00833338   0.00165438   0.0181318
  7704.32      -0.00170466   0.198295      -0.00170466  -0.00170466   0.00426941  -0.0154332
  7705.02      -0.00313738   0.196863      -0.00313738  -0.00313738  -0.00354084   0.00647629
  7705.75      -0.00136367   0.198636      -0.00136367  -0.00136367   0.01604   0.030141
  7706.47       0.0163009   0.216301       0.0163009   0.0163009   0.0298943   0.0109844
  7707.2       0.0397647   0.239765       0.0397647   0.0397647   0.0270218  -0.0202925
  7707.91       0.0524417   0.252442       0.0524417   0.0524417   0.00360656  -0.0229241
  7708.65       0.0532147   0.253215       0.0532147   0.0532147  -0.00231047  -0.012631
  7709.29       0.0481853   0.248185       0.0481853   0.0481853   0.002497   0.0238279
  7709.9       0.0523664   0.252366       0.0523664   0.0523664  -0.00482548  -0.0325522
  7710.51       0.0443019   0.244302       0.044302   0.044302  -0.00734527   0.0235723
  7711.11       0.045031   0.245031       0.045031   0.045031   0.0109112   0.00700927
  7711.73       0.0483529   0.248353       0.0483529   0.0483529  -0.00420232  -0.00524355
  7712.33       0.049672   0.249672       0.049672   0.049672  -0.00226884   0.0076666
  7712.95       0.0539404   0.25394       0.0539404   0.0539404   0.0173223   0.0272738
  7713.54       0.0673974   0.267397       0.0673974   0.0673974   0.0472128   0.0671914
  7714.16       0.107598       0.307598       0.107598       0.107598       0.0776871   0.0168194
  7714.78       0.15374       0.35374       0.15374       0.15374       0.0534966  -0.0608912
  7715.39       0.176848       0.376848       0.176848       0.176848       0.0472207   0.018627
  7715.97       0.205556       0.405556       0.205556       0.205556       0.0215919  -0.0664614
  7716.26       0.210636       0.410636       0.210636       0.210636       0.0465806   0.147707
  7716.5       0.223306       0.423306       0.223306       0.223306       0.071887   0.0965393
  7716.73       0.241172       0.441172       0.241172       0.241172       0.054621  -0.201364
  7716.99       0.247958       0.447958       0.247958       0.247958       0.033909   0.104265
  7717.23       0.260456       0.460456       0.260456       0.260456       0.0479082   0.180445
  7717.46       0.282426       0.482426       0.282426       0.282426       0.0647355  -0.18935
  7717.71       0.294856       0.494856       0.294856       0.294856       0.083607   0.166467
  7717.96       0.317789       0.517789       0.317789       0.317789       0.111493       0.0956793
  7718.21       0.345817       0.545817       0.345817       0.345817       0.0905306  -0.201785
  7718.44       0.360547       0.560547       0.360547       0.360547       0.107336       0.197224
  7718.69       0.388518       0.588519       0.388519       0.388519       0.0982356  -0.0319561
  7718.94       0.41369       0.61369       0.41369       0.41369       0.128611       0.202595
  7719.17       0.449519       0.649519       0.449519       0.449519       0.121826      -0.105462
  7719.42       0.481979       0.681979       0.481979       0.481979       0.154453       0.0840399
  7719.67       0.518545       0.718545       0.518545       0.518545       0.151325      -0.0438215
  7719.9       0.550871       0.750871       0.550871       0.550871       0.175028       0.30863
  7720.15       0.604881       0.804881       0.604881       0.604881       0.213184      -0.103038
  7720.4       0.650923       0.850923       0.650923       0.650923       0.166884      -0.149689
  7720.65       0.68882       0.88882       0.68882       0.68882       0.174297       0.218656
  7720.88       0.737019       0.937019       0.737019       0.737019       0.217872       0.0838496
  7721.13       0.794823       0.994823       0.794823       0.794823       0.167333      -0.134325
  7721.38       0.843107        1.04311       0.843107       0.843107       0.248701       0.208552
  7721.61       0.901182        2.23645       0.901294        2.03657       0.213853      -0.171001
  7721.86       0.953063        2.20432       0.953566        2.00482       0.269705      -0.0574259
  7722.1        1.00009        2.17375        1.00097        1.97463       0.132604       0.0466666
  7722.36        1.05243        2.14223        1.05371        1.9435       0.201574      -0.218749
  7722.59        1.08785        2.11357        1.0895        1.91521       0.146131      -0.175226
  7722.85        1.11513        2.08325        1.11717        1.88529       0.108589       0.178585
  7723.05        1.14579        2.0591        1.14816        1.86146       0.146763      -0.129554
  7723.41        1.18717        2.01812        1.19009        1.82104       0.105308       0.000645765
  7723.8        1.23319        1.9739        1.23673        1.77743       0.0867671  -0.161977
  7724.2        1.25409        1.93055        1.25824        1.73471       0.0175132  -0.134899
  7724.59        1.25372        1.88892        1.2585        1.6937       0.0115485  -0.025888
  7725.01        1.24911        1.84634        1.25454        1.65177      -0.0304422  -0.0275712
  7726.51        1.19388        1.70427        1.20165        1.51204      -0.0428738   0.00131195
  7728.07        1.13967        1.5745        1.14988        1.38471      -0.0328644   0.00460449
  7729.59        1.09732        1.46407        1.10991        1.27667      -0.0114852   0.014845
  7731.15        1.08935        1.3675        1.10438        1.18253      -0.00287311   0.00325012
  7732.68        1.08924        1.28679        1.10667        1.10422      -0.00857787  -0.00568862
  7734.21        1.07577        1.21925        1.0956        1.03908       0.000733155  -0.000457941
  7735.77        1.06097        1.16309        1.08324       0.985361      -0.0152945   0.00513931
  7737.31        1.05875        1.11909        1.08342       0.94376      -0.00531287  -0.0121583
  7738.84        1.02781        1.08504        1.05488       0.912114      -0.0178373   0.00457235
  7740.39        1.00754        1.05975        1.03703       0.889233      -0.015181  -0.00412202
  7741.95       0.977054        1.04212        1.00899       0.874054      -0.0237571  -0.000588966
  7746.97       0.869524        1.02617       0.909306       0.865953      -0.016125   0.00180251
  7751.94       0.807852        1.04204       0.855404       0.889592      -0.0103446   0.00102714
  7756.95       0.771345        1.05954       0.826741       0.914932      -0.000397934   0.00252787
  7761.95       0.79781        1.07354       0.861025       0.936756       0.00757003   0.00120851
  7766.97       0.854933        1.08436       0.925998       0.95543       0.0104844  -0.000207106
  7771.99       0.906908        1.09216       0.985829       0.971086       0.0105611  -0.00109401
  7777       0.93121        1.09713        1.01797       0.983894       0.00199089  -0.000667351
  7784.15       0.936913        1.09979        1.03486       0.997739      -0.0040699  -0.000531397
  7791.28       0.91557        1.09779        1.02468        1.0069       0.000969151   0.000175096
  7798.44       0.903145        1.09175        1.02344        1.01205      -0.00359782  -0.000217951
  7805.61       0.879488        1.08224        1.01102        1.01377      -0.00313366   9.51318e-05
  7812.81       0.860695        1.06988        1.00348        1.01267      -0.000161018  -1.99754e-05
  7819.99       0.840899        1.05534       0.994925        1.00936      -0.00332071   9.41332e-05
  7827.22       0.825897        1.03912       0.991232        1.00445      -0.00442173  -1.50489e-05
  7834.44       0.810141        1.02199       0.986764       0.99861       0.000959723  -8.86853e-05
  7841.69       0.789645        1.00446       0.977613       0.992427      -0.00192635   0.000841757
  7845.32       0.801569       0.99577       0.995216       0.989417       0.00328481   0.00143558

File: Ir0_5Hz_ReaddMean_VPhsCorrect_48_-47_mV_.csv.nor
# XDI/1.0 Athena/0.9.26
# Element.edge:                  K
# Element.symbol:                Co
# Column.1:                      energy eV
# Column.2:                      norm
# Column.3:                      nbkg
# Column.4:                      flat
# Column.5:                      fbkg
# Column.6:                      nder
# Column.7:                      nsec
# Athena.e0:                     7721.54
# Athena.eshift:                 0
# Athena.rbkg:                   1.0
# Athena.importance:             1
# Athena.standard:               None
# Athena.bkg_kweight:            3
# Athena.edge_step:              1.19264
# Athena.fixed_step:             no
# Athena.pre_edge_range:         -82.964 -19.904
# Athena.pre_edge_line:          -0.046223 + 0.000220658 * E
# Athena.normalization_range:    45 125.256
# Athena.post_edge_polynomial:   15.586 - 0.00164938 * E + 0 * E^2 + 0 * E^3
# Athena.spline_range_energy:    0.000 125.180
# Athena.clamps:                 0 24
# Athena.spline_range_k:         0.000 5.732
# Athena.kweight:                2
# Athena.window:                 hanning
# Athena.phase_correction:       no
# Athena.k_range:                .4 5.35
# Athena.dk:                     .5
# Athena.r_range:                .4 5.1
# Athena.dr:                     .5
# Athena.window:                 hanning
# Athena.plot_multiplier:        1
# Athena.y_offset:               0.2
# ///
#------------------------
#   e         norm        nbkg        flat        fbkg        nder        nsec
  7600.07      -0.216972      -0.0169723  -0.216972      -0.216972       0.0128702  -0.000556389
  7624.56      -0.0458686   0.154131      -0.0458686  -0.0458686   0.00272958  -0.000216967
  7649.7      -0.0150801   0.18492      -0.0150801  -0.0150801  -0.000336393   0.000104405
  7674.73       0.0809141   0.280914       0.0809141   0.0809141   0.000213997  -0.000294706
  7700.01      -0.00937557   0.190624      -0.00937557  -0.00937557   0.000397515   0.00106517
  7700.72      -0.00204743   0.197953      -0.00204743  -0.00204743   0.00501443  -0.0238916
  7701.43      -0.0063246   0.193675      -0.0063246  -0.0063246   0.000487043   0.0152425
  7702.15      -0.00264803   0.197352      -0.00264803  -0.00264803  -0.00348102  -0.0135316
  7702.88      -0.00598054   0.194019      -0.00598054  -0.00598054  -0.000799466   0.00348819
  7703.6      -0.00747085   0.192529      -0.00747085  -0.00747085   0.0018447   0.0138757
  7704.32      -0.00173637   0.198264      -0.00173637  -0.00173637   0.00359303  -0.0129441
  7705.02      -0.00277038   0.19723      -0.00277038  -0.00277038  -0.00369272   0.00440199
  7705.75      -0.00162789   0.198372      -0.00162789  -0.00162789   0.0170766   0.0323407
  7706.47       0.0165725   0.216572       0.0165725   0.0165725   0.029151   0.00938957
  7707.2       0.039743   0.239743       0.039743   0.039743   0.0269158  -0.0204201
  7707.91       0.0520626   0.252063       0.0520626   0.0520626   0.00376709  -0.021156
  7708.65       0.0534066   0.253407       0.0534066   0.0534066  -0.00219601  -0.0132355
  7709.29       0.048607   0.248607       0.048607   0.048607   0.0032995   0.0226437
  7709.9       0.0525612   0.252561       0.0525612   0.0525612  -0.0055408  -0.0312327
  7710.51       0.0447663   0.244766       0.0447663   0.0447663  -0.00714289   0.020177
  7711.11       0.0445231   0.244523       0.0445231   0.0445231   0.0106141   0.0100155
  7711.73       0.0479351   0.247935       0.0479351   0.0479351  -0.00363263  -0.00596006
  7712.33       0.0490759   0.249076       0.0490759   0.0490759  -0.00327413   0.00865382
  7712.95       0.053539   0.253539       0.053539   0.053539   0.0161622   0.0273233
  7713.54       0.0671967   0.267197       0.0671967   0.0671967   0.0482742   0.0645016
  7714.16       0.106576       0.306576       0.106576       0.106576       0.078178   0.0204802
  7714.78       0.153296       0.353296       0.153296       0.153296       0.0521524  -0.0626832
  7715.39       0.176314       0.376314       0.176314       0.176314       0.0478241   0.0189548
  7715.97       0.205049       0.405049       0.205049       0.205049       0.0211197  -0.0701191
  7716.26       0.209659       0.409659       0.209659       0.209659       0.0448513   0.158728
  7716.5       0.222542       0.422542       0.222542       0.222542       0.075784   0.0771767
  7716.73       0.239466       0.439466       0.239466       0.239466       0.0511359  -0.191785
  7716.99       0.245829       0.445829       0.245829       0.245829       0.0359773   0.137408
  7717.23       0.25982       0.45982       0.25982       0.25982       0.0461807   0.130775
  7717.46       0.280354       0.480354       0.280354       0.280354       0.0620653  -0.152122
  7717.71       0.293462       0.493462       0.293462       0.293462       0.0885215   0.163202
  7717.96       0.316876       0.516876       0.316876       0.316876       0.106063       0.0557101
  7718.21       0.343095       0.543095       0.343095       0.343095       0.0909922  -0.141235
  7718.44       0.359711       0.559711       0.359711       0.359711       0.10582       0.140971
  7718.69       0.386233       0.586233       0.386233       0.386233       0.0971396  -0.00343098
  7718.94       0.411614       0.611614       0.411614       0.411614       0.127624       0.184517
  7719.17       0.446591       0.646591       0.446591       0.446591       0.123097      -0.0794968
  7719.42       0.479715       0.679715       0.479715       0.479715       0.160224       0.0825447
  7719.67       0.516843       0.716843       0.516843       0.516843       0.14632      -0.0600663
  7719.9       0.548739       0.748739       0.548739       0.548739       0.173164       0.32701
  7720.15       0.603431       0.803431       0.603431       0.603431       0.209064      -0.136186
  7720.4       0.64825       0.84825       0.64825       0.64825       0.175339      -0.0948899
  7720.65       0.688293       0.888293       0.688293       0.688293       0.174307       0.172536
  7720.88       0.735813       0.935813       0.735813       0.735813       0.215197       0.0841041
  7721.13       0.792892       0.992892       0.792892       0.792892       0.168289      -0.11045
  7721.38       0.841843        1.04184       0.841843       0.841843       0.250433       0.211911
  7721.61       0.900749        2.23694       0.900862        2.03705       0.215568      -0.229289
  7721.86       0.949965        2.20479       0.95047        2.0053       0.266735       0.0121783
  7722.1       0.998285        2.17421       0.999169        1.97509       0.131966       0.0220043
  7722.36        1.05041        2.14267        1.05169        1.94395       0.205662      -0.191474
  7722.59        1.08725        2.114        1.0889        1.91565       0.144819      -0.201022
  7722.85        1.11445        2.08367        1.1165        1.88572       0.111402       0.152887
  7723.05        1.14383        2.0595        1.1462        1.86187       0.147724      -0.0877067
  7723.41        1.18676        2.01851        1.18968        1.82143       0.107068      -0.00581942
  7723.8        1.23351        1.97426        1.23705        1.77781       0.0856515  -0.172454
  7724.2        1.25349        1.93089        1.25765        1.73506       0.0161749  -0.116675
  7724.59        1.25506        1.88925        1.25985        1.69403       0.0147919  -0.0429473
  7725.01        1.2497        1.84665        1.25514        1.65209      -0.0322886  -0.0258591
  7726.51        1.19418        1.7045        1.20197        1.51229      -0.0422801   0.00174943
  7728.07        1.14074        1.57466        1.15098        1.38489      -0.033287   0.0038584
  7729.59        1.09741        1.46417        1.11003        1.27679      -0.0115015   0.0157284
  7731.15        1.09053        1.36753        1.10559        1.1826      -0.00294995   0.00228721
  7732.68        1.0892        1.28677        1.10667        1.10424      -0.00779521  -0.00493609
  7734.21        1.07627        1.21917        1.09615        1.03905       0.000718154  -0.00101739
  7735.77        1.06069        1.16297        1.08301       0.985287      -0.0153823   0.00560298
  7737.31        1.05881        1.11892        1.08353       0.943646      -0.00595537  -0.0122265
  7738.84        1.02804        1.08483        1.05517       0.911964      -0.0172129   0.00484807
  7740.39        1.00861        1.0595        1.03816       0.88905      -0.014948  -0.00494334
  7741.95       0.976977        1.04184        1.00898       0.873841      -0.0242735  -0.000356367
  7746.97       0.869629        1.0258       0.909501       0.865669      -0.0159451   0.00177441
  7751.94       0.807439        1.04161       0.855097       0.889273      -0.0105056   0.00103901
  7756.95       0.770706        1.05909       0.826226       0.914608      -0.000282056   0.00254013
  7761.95       0.797251        1.0731       0.860608       0.936454       0.00749756   0.0011557
  7766.97       0.853118        1.08395       0.924344       0.955171       0.0106167  -5.48091e-05
  7771.99       0.907656        1.09179       0.986756       0.970886       0.0105206  -0.00123158
  7777       0.931052        1.09681        1.01801       0.983764       0.00202647  -0.000614348
  7784.15       0.937763        1.09955        1.03593       0.997717      -0.00412973  -0.000561844
  7791.28       0.915878        1.09763        1.02523        1.00698       0.000878834   0.000191371
  7798.44       0.903743        1.09164        1.02431        1.01222      -0.00352726  -0.000234674
  7805.61       0.879518        1.08216        1.01134        1.01399      -0.00308858   9.92735e-05
  7812.81       0.86037        1.06977        1.00348        1.01288      -6.43922e-05  -1.36295e-05
  7819.99       0.840547        1.05514       0.99492        1.00951      -0.00347659   9.08015e-05
  7827.22       0.825344        1.03875       0.991052        1.00445      -0.004464   1.50669e-05
  7834.44       0.810954        1.02134       0.987975       0.998363       0.00104404  -0.000137258
  7841.69       0.789277        1.00343       0.977669       0.991817      -0.00200191   0.000837708
  7845.32       0.800504       0.994495       0.994588       0.988579       0.00309274   0.00140348