Folder: Xray-Project/Dynamic XAS/Dynamic XAS Energy analyzed data/ESweep_0_5 Hz/Same Eo/Normalized Spectra (part 22)

File: Ir0_5Hz_ReaddMean_VPhsCorrect_45_-134_mV_.csv.nor
# XDI/1.0 Athena/0.9.26
# Element.edge:                  K
# Element.symbol:                Co
# Column.1:                      energy eV
# Column.2:                      norm
# Column.3:                      nbkg
# Column.4:                      flat
# Column.5:                      fbkg
# Column.6:                      nder
# Column.7:                      nsec
# Athena.e0:                     7721.54
# Athena.eshift:                 0
# Athena.rbkg:                   1.0
# Athena.importance:             1
# Athena.standard:               None
# Athena.bkg_kweight:            3
# Athena.edge_step:              1.19254
# Athena.fixed_step:             no
# Athena.pre_edge_range:         -82.964 -19.904
# Athena.pre_edge_line:          -0.039419 + 0.00021981 * E
# Athena.normalization_range:    45 125.256
# Athena.post_edge_polynomial:   15.6112 - 0.00165263 * E + 0 * E^2 + 0 * E^3
# Athena.spline_range_energy:    0.000 125.180
# Athena.clamps:                 0 24
# Athena.spline_range_k:         0.000 5.732
# Athena.kweight:                2
# Athena.window:                 hanning
# Athena.phase_correction:       no
# Athena.k_range:                .4 5.35
# Athena.dk:                     .5
# Athena.r_range:                .4 5.1
# Athena.dr:                     .5
# Athena.window:                 hanning
# Athena.plot_multiplier:        1
# Athena.y_offset:               0.2
# ///
#------------------------
#   e         norm        nbkg        flat        fbkg        nder        nsec
  7600.07      -0.21447      -0.0144697  -0.21447      -0.21447       0.0124896  -0.000532153
  7624.56      -0.0464102   0.15359      -0.0464102  -0.0464102   0.00280565  -0.00021257
  7649.7      -0.0158108   0.184189      -0.0158108  -0.0158108  -0.000342844   0.000105884
  7674.73       0.0809208   0.280921       0.0809208   0.0809208   0.00017705  -0.000294731
  7700.01      -0.00863974   0.19136      -0.00863974  -0.00863974   0.000445845   0.000893152
  7700.72      -0.00288356   0.197116      -0.00288356  -0.00288356   0.00556083  -0.0184772
  7701.43      -0.00610193   0.193898      -0.00610193  -0.00610193  -0.000214575   0.0124777
  7702.15      -0.00280693   0.197193      -0.00280693  -0.00280693  -0.00295765  -0.012617
  7702.88      -0.00604779   0.193952      -0.00604779  -0.00604779  -0.00168098   0.00598907
  7703.6      -0.00613595   0.193864      -0.00613595  -0.00613595   0.00103022   0.00978364
  7704.32      -0.00112463   0.198875      -0.00112463  -0.00112463   0.00482762  -0.0143995
  7705.02      -0.00358624   0.196414      -0.00358624  -0.00358624  -0.00341294   0.0092861
  7705.75      -0.00147019   0.19853      -0.00147019  -0.00147019   0.0168186   0.0296535
  7706.47       0.0162761   0.216276       0.0162761   0.0162761   0.0302572   0.010516
  7707.2       0.0395779   0.239578       0.0395779   0.0395779   0.0252662  -0.020729
  7707.91       0.0518664   0.251866       0.0518664   0.0518664   0.00456233  -0.0204722
  7708.65       0.0535401   0.25354       0.0535401   0.0535401  -0.0012447  -0.0162835
  7709.29       0.0476531   0.247653       0.0476531   0.0476531   0.00244084   0.0267189
  7709.9       0.052106   0.252106       0.052106   0.052106  -0.00461861  -0.0344402
  7710.51       0.043603   0.243603       0.043603   0.043603  -0.0080204   0.026749
  7711.11       0.0450605   0.24506       0.0450605   0.0450605   0.0128591   0.00670413
  7711.73       0.0490274   0.249027       0.0490274   0.0490274  -0.0067826  -0.00967535
  7712.33       0.0493304   0.24933       0.0493304   0.0493303  -0.0015402   0.0118016
  7712.95       0.0541393   0.254139       0.0541393   0.0541393   0.016536   0.0290584
  7713.54       0.0687232   0.268723       0.0687232   0.0687232   0.0476402   0.0649699
  7714.16       0.109269       0.309269       0.109269       0.109269       0.0794676   0.0144337
  7714.78       0.154845       0.354845       0.154845       0.154845       0.0509563  -0.0609804
  7715.39       0.177361       0.377361       0.177361       0.177361       0.0501521   0.0212256
  7715.97       0.206402       0.406402       0.206402       0.206402       0.0209925  -0.0661372
  7716.26       0.211686       0.411686       0.211686       0.211686       0.0506135   0.159954
  7716.5       0.225219       0.425219       0.225219       0.225219       0.0706323   0.055472
  7716.73       0.241481       0.441481       0.241481       0.241481       0.0418001  -0.159157
  7716.99       0.249178       0.449178       0.249178       0.249178       0.0382433   0.073692
  7717.23       0.260798       0.460798       0.260798       0.260798       0.0608103   0.219386
  7717.46       0.284169       0.484169       0.284169       0.284169       0.055234  -0.213773
  7717.71       0.296649       0.496649       0.296649       0.296649       0.0912021   0.128303
  7717.96       0.317248       0.517248       0.317248       0.317248       0.105319       0.194707
  7718.21       0.34863       0.54863       0.34863       0.34863       0.0912405  -0.287372
  7718.44       0.361456       0.561456       0.361456       0.361456       0.10979       0.259882
  7718.69       0.391255       0.591255       0.391255       0.391255       0.094442  -0.0999455
  7718.94       0.414355       0.614355       0.414355       0.414355       0.133182       0.31405
  7719.17       0.454697       0.654697       0.454697       0.454697       0.128274      -0.247832
  7719.42       0.48334       0.68334       0.48334       0.48334       0.144399       0.13084
  7719.67       0.518898       0.718898       0.518898       0.518898       0.152384      -0.000122302
  7719.9       0.552858       0.752858       0.552858       0.552858       0.18006       0.258932
  7720.15       0.605535       0.805535       0.605535       0.605535       0.221113      -0.0709056
  7720.4       0.652115       0.852115       0.652115       0.652115       0.153817      -0.144407
  7720.65       0.690892       0.890892       0.690892       0.690892       0.175422       0.223173
  7720.88       0.740178       0.940178       0.740178       0.740178       0.216748       0.0472275
  7721.13       0.796868       0.996868       0.796868       0.796868       0.174249      -0.114601
  7721.38       0.845204        1.0452       0.845204       0.845204       0.240648       0.189023
  7721.61       0.902172        2.22566       0.902285        2.02577       0.21314      -0.118117
  7721.86       0.956092        2.19386       0.956597        1.99436       0.264137      -0.106265
  7722.1        1.00237        2.1636        1.00326        1.96449       0.132522       0.0383396
  7722.36        1.0534        2.1324        1.05468        1.93368       0.202814      -0.216817
  7722.59        1.08772        2.10403        1.08937        1.90568       0.150289      -0.164948
  7722.85        1.11445        2.07402        1.1165        1.87608       0.106629       0.176508
  7723.05        1.14457        2.05012        1.14694        1.85249       0.139563      -0.131897
  7723.41        1.18479        2.00956        1.18772        1.81249       0.105711      -0.000423144
  7723.8        1.22936        1.96578        1.23291        1.76933       0.0863302  -0.124503
  7724.2        1.25472        1.92287        1.25889        1.72705       0.0204373  -0.166241
  7724.59        1.25388        1.88167        1.25868        1.68646       0.00847535  -0.0321567
  7725.01        1.24774        1.83952        1.25319        1.64497      -0.0306308  -0.0234483
  7726.51        1.19279        1.69887        1.20059        1.50667      -0.0418498   0.000955778
  7728.07        1.13799        1.57039        1.14823        1.38063      -0.034094   0.00460665
  7729.59        1.09506        1.46104        1.1077        1.27368      -0.0103465   0.0156679
  7731.15        1.08845        1.36539        1.10354        1.18048      -0.00430446   0.00267701
  7732.68        1.08833        1.28545        1.10582        1.10294      -0.00813316  -0.00570411
  7734.21        1.0748        1.21852        1.0947        1.03842       0.000966873  -0.000709759
  7735.77        1.05933        1.16286        1.08169       0.985207      -0.0153603   0.00604277
  7737.31        1.05863        1.11922        1.08339       0.943981      -0.00381777  -0.0130843
  7738.84        1.02701        1.08544        1.05418       0.912606      -0.0197633   0.00551168
  7740.39        1.0083        1.06031        1.03789       0.889905      -0.0131616  -0.00488226
  7741.95       0.977546        1.04278        1.0096       0.874825      -0.0244095  -0.00060227
  7746.97       0.868953        1.02671       0.90888       0.866641      -0.0160523   0.00191505
  7751.94       0.809024        1.0422       0.856748       0.889927      -0.0100349   0.000900783
  7756.95       0.771107        1.05938       0.826704       0.91498      -0.000181105   0.0026094
  7761.95       0.798194        1.07319       0.861638       0.936629       0.00727352   0.0011293
  7766.97       0.853939        1.0839       0.925262       0.955223       0.0103521  -0.000127097
  7771.99       0.906541        1.09167       0.985749       0.970876       0.0108486  -0.00113462
  7777       0.930448        1.09667        1.01752       0.983743       0.0015917  -0.000656912
  7784.15       0.936038        1.09944        1.03434       0.997741      -0.00388519  -0.000496193
  7791.28       0.916374        1.09759        1.02588        1.00709       0.000898767   0.000122711
  7798.44       0.902946        1.09168        1.02368        1.01242      -0.00352897  -0.000185228
  7805.61       0.879963        1.08225        1.01197        1.01426      -0.00329883   6.65299e-05
  7812.81       0.860366        1.06985        1.00367        1.01316      -2.19992e-05   2.90518e-05
  7819.99       0.842295        1.0551       0.99688        1.00969      -0.00348067  -1.65851e-06
  7827.22       0.824026        1.03847       0.989962        1.0044      -0.00429992   7.66669e-05
  7834.44       0.809781        1.02065       0.987044       0.99791       0.000718106  -8.9868e-05
  7841.69       0.79074        1.0021       0.97939       0.990752      -0.00180378   0.00071721
  7845.32       0.80011       0.992768       0.99446       0.987117       0.00258133   0.00120802

File: Ir0_5Hz_ReaddMean_VPhsCorrect_46_-106_mV_.csv.nor
# XDI/1.0 Athena/0.9.26
# Element.edge:                  K
# Element.symbol:                Co
# Column.1:                      energy eV
# Column.2:                      norm
# Column.3:                      nbkg
# Column.4:                      flat
# Column.5:                      fbkg
# Column.6:                      nder
# Column.7:                      nsec
# Athena.e0:                     7721.54
# Athena.eshift:                 0
# Athena.rbkg:                   1.0
# Athena.importance:             1
# Athena.standard:               None
# Athena.bkg_kweight:            3
# Athena.edge_step:              1.19286
# Athena.fixed_step:             no
# Athena.pre_edge_range:         -82.964 -19.904
# Athena.pre_edge_line:          0.004182 + 0.000214121 * E
# Athena.normalization_range:    45 125.256
# Athena.post_edge_polynomial:   15.6271 - 0.00165469 * E + 0 * E^2 + 0 * E^3
# Athena.spline_range_energy:    0.000 125.180
# Athena.clamps:                 0 24
# Athena.spline_range_k:         0.000 5.732
# Athena.kweight:                2
# Athena.window:                 hanning
# Athena.phase_correction:       no
# Athena.k_range:                .4 5.35
# Athena.dk:                     .5
# Athena.r_range:                .4 5.1
# Athena.dr:                     .5
# Athena.window:                 hanning
# Athena.plot_multiplier:        1
# Athena.y_offset:               0.2
# ///
#------------------------
#   e         norm        nbkg        flat        fbkg        nder        nsec
  7600.07      -0.215513      -0.015513  -0.215513      -0.215513       0.0125953  -0.000539
  7624.56      -0.0466384   0.153362      -0.0466384  -0.0466384   0.00280321  -0.000213222
  7649.7      -0.0156376   0.184362      -0.0156376  -0.0156376  -0.000358627   0.000105257
  7674.73       0.0811016   0.281102       0.0811016   0.0811016   0.000193721  -0.000295024
  7700.01      -0.00863769   0.191362      -0.00863769  -0.00863769   0.000473061   0.000890347
  7700.72      -0.0029125   0.197087      -0.0029125  -0.0029125   0.00414377  -0.0175361
  7701.43      -0.00570254   0.194297      -0.00570254  -0.00570254   0.000313736   0.0112719
  7702.15      -0.00260763   0.197392      -0.00260763  -0.00260763  -0.00273997  -0.0118387
  7702.88      -0.00564538   0.194355      -0.00564538  -0.00564538  -0.00116111   0.00221897
  7703.6      -0.00750743   0.192493      -0.00750743  -0.00750743   0.000705494   0.0152582
  7704.32      -0.0014261   0.198574      -0.0014261  -0.0014261   0.00562094  -0.015652
  7705.02      -0.00349394   0.196506      -0.00349394  -0.00349394  -0.00399021   0.00856807
  7705.75      -0.00132812   0.198672      -0.00132812  -0.00132812   0.0161255   0.0289987
  7706.47       0.0161219   0.216122       0.0161219   0.0161219   0.0303768   0.0118923
  7707.2       0.0398436   0.239844       0.0398436   0.0398436   0.0256313  -0.0209342
  7707.91       0.0524414   0.252441       0.0524414   0.0524414   0.00467822  -0.0225629
  7708.65       0.0533246   0.253325       0.0533246   0.0533246  -0.00189183  -0.0135382
  7709.29       0.0479823   0.247982       0.0479823   0.0479823   0.002303   0.0246392
  7709.9       0.0521709   0.252171       0.0521709   0.0521709  -0.00432231  -0.0328788
  7710.51       0.0439912   0.243991       0.0439912   0.0439912  -0.0079955   0.0255803
  7711.11       0.0453381   0.245338       0.0453381   0.0453381   0.0118099   0.00627712
  7711.73       0.0490339   0.249034       0.0490339   0.0490339  -0.00568971  -0.00761637
  7712.33       0.0498372   0.249837       0.0498371   0.0498371  -0.00148584   0.00924093
  7712.95       0.0541798   0.25418       0.0541798   0.0541798   0.0174338   0.0282799
  7713.54       0.0680547   0.268055       0.0680547   0.0680547   0.0469855   0.0670607
  7714.16       0.10865       0.30865       0.10865       0.10865       0.0786262   0.0147392
  7714.78       0.154391       0.354391       0.154391       0.154391       0.0520679  -0.0613476
  7715.39       0.176935       0.376935       0.176935       0.176935       0.0490551   0.0216569
  7715.97       0.206153       0.406153       0.206153       0.206153       0.0203757  -0.0692532
  7716.26       0.211111       0.411111       0.211111       0.211111       0.0504029   0.158553
  7716.5       0.224283       0.424283       0.224283       0.224283       0.0690139   0.0886222
  7716.73       0.242163       0.442163       0.242163       0.242163       0.0500833  -0.204796
  7716.99       0.248747       0.448747       0.248747       0.248747       0.0358484   0.0982665
  7717.23       0.260708       0.460708       0.260708       0.260708       0.0534049   0.210856
  7717.46       0.28391       0.48391       0.28391       0.28391       0.0620214  -0.219083
  7717.71       0.295889       0.495889       0.295889       0.295889       0.0860921   0.153755
  7717.96       0.317574       0.517574       0.317574       0.317574       0.108813       0.148842
  7718.21       0.347407       0.547407       0.347407       0.347407       0.091666  -0.254013
  7718.44       0.360744       0.560744       0.360744       0.360744       0.109806       0.24125
  7718.69       0.38994       0.58994       0.38994       0.38994       0.0974149  -0.0642303
  7718.94       0.414473       0.614473       0.414473       0.414473       0.12907       0.251046
  7719.17       0.452514       0.652514       0.452514       0.452514       0.127071      -0.180857
  7719.42       0.48276       0.68276       0.48276       0.48276       0.14435       0.119176
  7719.67       0.519204       0.719204       0.519204       0.519204       0.154851      -0.034303
  7719.9       0.551979       0.751979       0.551979       0.551979       0.174961       0.289296
  7720.15       0.60527       0.80527       0.60527       0.60527       0.218824      -0.0759129
  7720.4       0.652157       0.852157       0.652157       0.652157       0.15942      -0.16782
  7720.65       0.689796       0.889796       0.689796       0.689796       0.174065       0.217356
  7720.88       0.737677       0.937677       0.737677       0.737677       0.220373       0.102074
  7721.13       0.796278       0.996278       0.796278       0.796278       0.166202      -0.153551
  7721.38       0.844232        1.04423       0.844232       0.844232       0.245712       0.199627
  7721.61       0.901466        2.22642       0.901579        2.02653       0.214982      -0.136689
  7721.86       0.954538        2.1946       0.955043        1.9951       0.265694      -0.0818901
  7722.1        1.00135        2.16433        1.00224        1.96521       0.134253       0.0341774
  7722.36        1.05268        2.13311        1.05396        1.93439       0.198481      -0.223226
  7722.59        1.08689        2.10472        1.08854        1.90637       0.150321      -0.143654
  7722.85        1.11482        2.0747        1.11687        1.87675       0.106528       0.169332
  7723.05        1.14558        2.05078        1.14794        1.85315       0.143809      -0.14508
  7723.41        1.1857        2.0102        1.18862        1.81312       0.103637       0.00220732
  7723.8        1.23057        1.9664        1.23411        1.76994       0.0895372  -0.132777
  7724.2        1.25492        1.92347        1.25908        1.72763       0.0189634  -0.166001
  7724.59        1.25312        1.88224        1.2579        1.68702       0.00757627  -0.0182957
  7725.01        1.24823        1.84007        1.25366        1.6455      -0.0295532  -0.0270774
  7726.51        1.1927        1.69934        1.20048        1.50712      -0.0426582   0.00144416
  7728.07        1.1385        1.57078        1.14872        1.381      -0.0330993   0.00443161
  7729.59        1.09575        1.46137        1.10837        1.27399      -0.0113494   0.0151627
  7731.15        1.08813        1.36567        1.10319        1.18073      -0.00319876   0.00327232
  7732.68        1.08843        1.28568        1.10588        1.10313      -0.00902236  -0.00595821
  7734.21        1.07473        1.21872        1.09458        1.03857       0.000806622  -0.000550388
  7735.77        1.05947        1.16302        1.08177       0.985327      -0.0150048   0.00593503
  7737.31        1.05871        1.11937        1.08342       0.944073      -0.00439445  -0.0129872
  7738.84        1.02727        1.08556        1.05438       0.912674      -0.018978   0.00511593
  7740.39        1.00779        1.06043        1.03732       0.889955      -0.0140053  -0.00450979
  7741.95       0.977163        1.04288        1.00914       0.874861      -0.0238649  -0.000599161
  7746.97       0.869023        1.02682       0.908862       0.866656      -0.0161599   0.00187316
  7751.94       0.808503        1.04232       0.856122       0.889938      -0.0102594   0.00095028
  7756.95       0.77123        1.05951       0.826704       0.914985      -0.000252802   0.00259521
  7761.95       0.798607        1.07332       0.861911       0.936627       0.00749585   0.00113597
  7766.97       0.85481        1.08405       0.925976       0.955212       0.0102663  -0.000191131
  7771.99       0.906266        1.09182       0.985299       0.970855       0.0107624  -0.00105724
  7777       0.930976        1.09683        1.01786       0.983713       0.00188406  -0.000700758
  7784.15       0.93581        1.09961        1.0339       0.997699      -0.00397683  -0.000485711
  7791.28       0.915925        1.09778        1.02519        1.00704       0.000912396   0.000125385
  7798.44       0.902412        1.0919        1.02288        1.01237      -0.00357885  -0.000180653
  7805.61       0.879579        1.0825        1.01129        1.01422      -0.00324194   8.07979e-05
  7812.81       0.86087        1.07015        1.00386        1.01314      -0.000130875  -8.22925e-06
  7819.99       0.841763        1.05546       0.996008        1.00971      -0.00334378   5.74675e-05
  7827.22       0.825541        1.03891       0.991111        1.00448      -0.00431506   1.15821e-05
  7834.44       0.809952        1.02118       0.986825       0.998057       0.000683775  -7.12834e-05
  7841.69       0.790537        1.00276       0.978772       0.990997      -0.00185613   0.000741158
  7845.32       0.800351       0.993499       0.994273       0.987421       0.00270366   0.00125614