Folder: Xray-Project/Dynamic XAS/Dynamic XAS Energy analyzed data/ESweep_0_5 Hz/Same Eo/Normalized Spectra (part 24)

File: Ir0_5Hz_ReaddMean_VPhsCorrect_49_-16_mV_.csv.nor
# XDI/1.0 Athena/0.9.26
# Element.edge:                  K
# Element.symbol:                Co
# Column.1:                      energy eV
# Column.2:                      norm
# Column.3:                      nbkg
# Column.4:                      flat
# Column.5:                      fbkg
# Column.6:                      nder
# Column.7:                      nsec
# Athena.e0:                     7721.54
# Athena.eshift:                 0
# Athena.rbkg:                   1.0
# Athena.importance:             1
# Athena.standard:               None
# Athena.bkg_kweight:            3
# Athena.edge_step:              1.19364
# Athena.fixed_step:             no
# Athena.pre_edge_range:         -82.964 -19.904
# Athena.pre_edge_line:          -0.032886 + 0.000218905 * E
# Athena.normalization_range:    45 125.256
# Athena.post_edge_polynomial:   15.6338 - 0.00165547 * E + 0 * E^2 + 0 * E^3
# Athena.spline_range_energy:    0.000 125.180
# Athena.clamps:                 0 24
# Athena.spline_range_k:         0.000 5.732
# Athena.kweight:                2
# Athena.window:                 hanning
# Athena.phase_correction:       no
# Athena.k_range:                .4 5.35
# Athena.dk:                     .5
# Athena.r_range:                .4 5.1
# Athena.dr:                     .5
# Athena.window:                 hanning
# Athena.plot_multiplier:        1
# Athena.y_offset:               0.2
# ///
#------------------------
#   e         norm        nbkg        flat        fbkg        nder        nsec
  7600.07      -0.21983      -0.0198298  -0.21983      -0.21983       0.0132544  -0.00058165
  7624.56      -0.0458598   0.15414      -0.0458598  -0.0458598   0.0026824  -0.000220665
  7649.7      -0.0145977   0.185402      -0.0145977  -0.0145977  -0.000350794   0.000102509
  7674.73       0.0806813   0.280681       0.0806813   0.0806813   0.000232501  -0.000293339
  7700.01      -0.00946152   0.190538      -0.00946152  -0.00946152   0.000386705   0.00107547
  7700.72      -0.00203386   0.197966      -0.00203386  -0.00203386   0.00481023  -0.0238141
  7701.43      -0.00617283   0.193827      -0.00617283  -0.00617283   0.00131657   0.0150952
  7702.15      -0.00243412   0.197566      -0.00243412  -0.00243412  -0.00353274  -0.0152574
  7702.88      -0.00660011   0.1934      -0.00660011  -0.00660011  -0.00212871   0.00813854
  7703.6      -0.00648289   0.193517      -0.00648289  -0.00648289   0.00149919   0.00979995
  7704.32      -0.00125655   0.198743      -0.00125655  -0.00125655   0.00475513  -0.0112879
  7705.02      -0.00194199   0.198058      -0.00194199  -0.00194199  -0.00423456   0.00148969
  7705.75      -0.00190729   0.198093      -0.00190729  -0.0019073   0.0178851   0.0347648
  7706.47       0.0164753   0.216475       0.0164753   0.0164753   0.0296659   0.0106725
  7707.2       0.0404976   0.240498       0.0404976   0.0404976   0.0258956  -0.0237568
  7707.91       0.0519202   0.25192       0.0519202   0.0519202   0.00407308  -0.0192552
  7708.65       0.0533568   0.253357       0.0533568   0.0533568  -0.00277991  -0.0131375
  7709.29       0.0486831   0.248683       0.0486831   0.0486831   0.0043451   0.020325
  7709.9       0.0518843   0.251884       0.0518843   0.0518843  -0.00502286  -0.0295299
  7710.51       0.0439788   0.243979       0.0439788   0.0439788  -0.00777482   0.0232748
  7711.11       0.0447543   0.244754       0.0447543   0.0447543   0.0108906   0.00851255
  7711.73       0.0486744   0.248674       0.0486744   0.0486744  -0.00369243  -0.0100463
  7712.33       0.048793   0.248793       0.048793   0.048793  -0.00396516   0.0092026
  7712.95       0.0524229   0.252423       0.0524229   0.0524229   0.016215   0.0336353
  7713.54       0.0674768   0.267477       0.0674768   0.0674768   0.0468826   0.0590861
  7714.16       0.106258       0.306258       0.106258       0.106258       0.0788323   0.0205096
  7714.78       0.152398       0.352398       0.152398       0.152398       0.0506337  -0.0603573
  7715.39       0.175702       0.375702       0.175702       0.175702       0.0498184   0.0176064
  7715.97       0.204244       0.404244       0.204244       0.204244       0.0201719  -0.0735727
  7716.26       0.208304       0.408304       0.208304       0.208304       0.0437546   0.17007
  7716.5       0.22135       0.42135       0.22135       0.22135       0.0748271   0.0654295
  7716.73       0.237734       0.437734       0.237734       0.237734       0.0496393  -0.166972
  7716.99       0.245072       0.445072       0.245072       0.245072       0.0390428   0.115425
  7717.23       0.258739       0.458739       0.258739       0.258739       0.0461074   0.123079
  7717.46       0.278532       0.478532       0.278532       0.278532       0.0640948  -0.130516
  7717.71       0.292134       0.492134       0.292134       0.292134       0.0892069   0.153645
  7717.96       0.315449       0.515449       0.315449       0.315449       0.100135       0.0308004
  7718.21       0.340148       0.540148       0.340148       0.340148       0.0947142  -0.0824568
  7718.44       0.358821       0.558821       0.358821       0.358821       0.0994205   0.0703344
  7718.69       0.383188       0.583188       0.383188       0.383188       0.0995707   0.0484495
  7718.94       0.409415       0.609415       0.409415       0.409415       0.122595       0.176218
  7719.17       0.444717       0.644717       0.444717       0.444717       0.125772      -0.104565
  7719.42       0.476659       0.676659       0.476659       0.476659       0.164471       0.117965
  7719.67       0.514689       0.714689       0.514689       0.514689       0.141909      -0.0632179
  7719.9       0.54726       0.74726       0.54726       0.54726       0.172264       0.299604
  7720.15       0.600972       0.800972       0.600972       0.600972       0.204736      -0.11625
  7720.4       0.64598       0.84598       0.64598       0.64598       0.179933      -0.0900581
  7720.65       0.686515       0.886515       0.686515       0.686515       0.174088       0.165155
  7720.88       0.734065       0.934065       0.734065       0.734065       0.212079       0.0757843
  7721.13       0.790656       0.990656       0.790656       0.790656       0.172003      -0.0919823
  7721.38       0.840192        1.04019       0.840192       0.840192       0.24918       0.193617
  7721.61       0.898569        2.23354       0.898682        2.03365       0.219969      -0.223007
  7721.86       0.947602        2.2015       0.948108        2.002       0.26223       0.0140751
  7722.1       0.99585        2.17101       0.996735        1.9719       0.134847       0.0208328
  7722.36        1.04782        2.13958        1.04911        1.94086       0.208144      -0.174131
  7722.59        1.08556        2.11099        1.08721        1.91265       0.145597      -0.206094
  7722.85        1.1134        2.08076        1.11545        1.88281       0.112572       0.129761
  7723.05        1.14219        2.05667        1.14457        1.85905       0.147439      -0.0866891
  7723.41        1.1842        2.01581        1.18713        1.81874       0.105808       0.0146777
  7723.8        1.23308        1.97171        1.23663        1.77526       0.0937795  -0.179207
  7724.2        1.25413        1.92848        1.25831        1.73265       0.0105678  -0.126501
  7724.59        1.25524        1.88696        1.26003        1.69176       0.0125867  -0.0402224
  7725.01        1.24984        1.8445        1.25528        1.64994      -0.0314238  -0.0263896
  7726.51        1.19341        1.70279        1.20121        1.51059      -0.0418252   0.00225755
  7728.07        1.14029        1.57335        1.15053        1.38359      -0.0340128   0.00330018
  7729.59        1.09595        1.46318        1.1086        1.27583      -0.0121966   0.0169368
  7731.15        1.09092        1.36683        1.106        1.18192      -0.00134507   0.00105908
  7732.68        1.08848        1.2863        1.10597        1.10379      -0.00831521  -0.00449236
  7734.21        1.07548        1.21888        1.09538        1.03878       0.000357193  -0.000753373
  7735.77        1.06046        1.16281        1.08281       0.985167      -0.0151979   0.00560693
  7737.31        1.05914        1.11887        1.0839       0.943631      -0.00590116  -0.0127454
  7738.84        1.0277        1.08485        1.05488       0.91202      -0.0174092   0.00558701
  7740.39        1.00936        1.05955        1.03895       0.889149      -0.0143289  -0.00572377
  7741.95       0.97694        1.0419        1.00899       0.873956      -0.0244248  -0.000199989
  7746.97       0.869652        1.02579       0.909583       0.865718      -0.0160575   0.00177859
  7751.94       0.807626        1.04145       0.855355       0.889182      -0.0104665   0.00102657
  7756.95       0.770747        1.05881       0.82635       0.914417      -0.000154892   0.00255745
  7761.95       0.797576        1.07276       0.861028       0.936215       0.00727305   0.00109022
  7766.97       0.852075        1.0836       0.923406       0.954928       0.010836   6.90926e-05
  7771.99       0.90835        1.09146       0.987567       0.970674       0.0104897  -0.00134305
  7777       0.930671        1.09653        1.01776       0.98361       0.0020227  -0.00057553
  7784.15       0.937535        1.09936        1.03585       0.997673      -0.00408894  -0.000560926
  7791.28       0.915849        1.09754        1.02537        1.00706       0.000871011   0.00018305
  7798.44       0.903487        1.09165        1.02424        1.0124      -0.00357007  -0.000215212
  7805.61       0.880034        1.08222        1.01206        1.01424      -0.00319566   8.17551e-05
  7812.81       0.860753        1.06982        1.00407        1.01314       0.000123779  -1.53465e-05
  7819.99       0.840709        1.05508       0.995311        1.00968      -0.00358501   7.20716e-05
  7827.22       0.824305        1.03846       0.990259        1.00442      -0.00445021   5.51596e-05
  7834.44       0.810802        1.0207       0.988086       0.99798       0.00087255  -0.000131773
  7841.69       0.790305        1.00224       0.978977       0.990916      -0.00183682   0.000759998
  7845.32       0.800075       0.992973       0.994447       0.987345       0.00269125   0.0012474