Folder: Xray-Project/Dynamic XAS/Dynamic XAS Energy analyzed data/ESweep_0_5 Hz/Same Eo/Normalized Spectra (part 3)

File: Ir0_5Hz_ReaddMean_VPhsCorrect_5_159_mV_.csv.nor
# XDI/1.0 Athena/0.9.26
# Element.edge:                  K
# Element.symbol:                Co
# Column.1:                      energy eV
# Column.2:                      norm
# Column.3:                      nbkg
# Column.4:                      flat
# Column.5:                      fbkg
# Column.6:                      nder
# Column.7:                      nsec
# Athena.e0:                     7721.54
# Athena.eshift:                 0
# Athena.rbkg:                   1.0
# Athena.importance:             1
# Athena.standard:               None
# Athena.bkg_kweight:            3
# Athena.edge_step:              1.19464
# Athena.fixed_step:             no
# Athena.pre_edge_range:         -82.964 -19.904
# Athena.pre_edge_line:          0.175506 + 0.000191795 * E
# Athena.normalization_range:    45 125.256
# Athena.post_edge_polynomial:   15.6893 - 0.00166265 * E + 0 * E^2 + 0 * E^3
# Athena.spline_range_energy:    0.000 125.180
# Athena.clamps:                 0 24
# Athena.spline_range_k:         0.000 5.732
# Athena.kweight:                2
# Athena.window:                 hanning
# Athena.phase_correction:       no
# Athena.k_range:                .4 5.35
# Athena.dk:                     .5
# Athena.r_range:                .4 5.1
# Athena.dr:                     .5
# Athena.window:                 hanning
# Athena.plot_multiplier:        1
# Athena.y_offset:               0.2
# ///
#------------------------
#   e         norm        nbkg        flat        fbkg        nder        nsec
  7600.07      -0.215244      -0.0152439  -0.215244      -0.215244       0.0122232  -0.000512694
  7624.56      -0.0486702   0.15133      -0.0486702  -0.0486702   0.00293939  -0.00020518
  7649.7      -0.0146617   0.185338      -0.0146617  -0.0146617  -0.000357435   9.51947e-05
  7674.73       0.0787746   0.278775       0.0787746   0.0787746   0.000241286  -0.000286306
  7700.01      -0.00876154   0.191238      -0.00876154  -0.00876154   0.000341634   0.000956905
  7700.72      -0.00235839   0.197642      -0.00235839  -0.00235839   0.00420024  -0.0213487
  7701.43      -0.00632657   0.193673      -0.00632657  -0.00632657   0.00303466   0.016203
  7702.15      -0.00183498   0.198165      -0.00183498  -0.00183498  -0.00449812  -0.017011
  7702.88      -0.00615525   0.193845      -0.00615525  -0.00615525  -0.00267493   0.00726389
  7703.6      -0.00665012   0.19335      -0.00665012  -0.00665012   0.00273697   0.0118181
  7704.32      -0.00098727   0.199013      -0.00098727  -0.00098727   0.00421497  -0.013546
  7705.02      -0.00239364   0.197606      -0.00239364  -0.00239364  -0.00352358   0.00278202
  7705.75      -0.00246132   0.197539      -0.00246132  -0.00246132   0.0161581   0.035052
  7706.47       0.0159715   0.215971       0.0159715   0.0159715   0.0290244   0.0089677
  7707.2       0.0391555   0.239156       0.0391555   0.0391555   0.0272602  -0.0208097
  7707.91       0.0512851   0.251285       0.0512851   0.0512851   0.00354757  -0.0187836
  7708.65       0.0536898   0.25369       0.0536898   0.0536898  -0.000531863  -0.0166167
  7709.29       0.0482961   0.248296       0.0482961   0.0482961   0.00255038   0.0267845
  7709.9       0.0532432   0.253243       0.0532432   0.0532432  -0.00418177  -0.0334403
  7710.51       0.0456085   0.245608       0.0456085   0.0456085  -0.00891969   0.0145388
  7711.11       0.0434715   0.243471       0.0434715   0.0434715   0.00860874   0.0197361
  7711.73       0.0484728   0.248473       0.0484728   0.0484728  -0.00526213  -0.0152396
  7712.33       0.0477212   0.247721       0.0477212   0.0477212  -0.00684854   0.00528816
  7712.95       0.0489713   0.248971       0.0489713   0.0489713   0.0207844   0.042484
  7713.54       0.064839   0.264839       0.064839   0.064839   0.0453551   0.0558719
  7714.16       0.103249       0.303249       0.103249       0.103249       0.0743061   0.00789846
  7714.78       0.144229       0.344229       0.144229       0.144229       0.0443668  -0.0417948
  7715.39       0.169294       0.369294       0.169294       0.169294       0.0498944   0.00011127
  7715.97       0.19345       0.39345       0.19345       0.19345       0.0262424  -0.0293511
  7716.26       0.201237       0.401237       0.201237       0.201237       0.0215557   0.0452117
  7716.5       0.210489       0.410489       0.210489       0.210489       0.0815427   0.134275
  7716.73       0.22731       0.42731       0.22731       0.22731       0.0547102  -0.11156
  7716.99       0.238614       0.438614       0.238614       0.238614       0.0391927   0.0467157
  7717.23       0.252154       0.452154       0.252154       0.252154       0.03471   0.0529148
  7717.46       0.267826       0.467826       0.267826       0.267826       0.0816005  -0.108516
  7717.71       0.278286       0.478286       0.278286       0.278286       0.0845853   0.287602
  7717.96       0.306805       0.506805       0.306805       0.306805       0.0843912  -0.139088
  7718.21       0.326931       0.526931       0.326931       0.326931       0.109503       0.0482443
  7718.44       0.349036       0.549036       0.349036       0.349036       0.062264  -0.0955716
  7718.69       0.366839       0.566839       0.366839       0.366839       0.106879       0.284251
  7718.94       0.400031       0.600031       0.400031       0.400031       0.104812      -0.0407352
  7719.17       0.429349       0.629349       0.429349       0.429349       0.128086       0.0237657
  7719.42       0.46265       0.66265       0.46265       0.46265       0.19483       0.0856233
  7719.67       0.500129       0.700129       0.500129       0.500129       0.12399       0.0118604
  7719.9       0.536637       0.736637       0.536637       0.536637       0.150659       0.134975
  7720.15       0.584341       0.784341       0.584341       0.584341       0.224845       0.0262219
  7720.4       0.631645       0.831645       0.631645       0.631645       0.176086      -0.10768
  7720.65       0.673441       0.873441       0.673441       0.673441       0.171869       0.191329
  7720.88       0.723696       0.923696       0.723696       0.723696       0.235268      -0.0710433
  7721.13       0.774023       0.974023       0.774023       0.774023       0.188817      -0.0433453
  7721.38       0.820281        1.02028       0.820281       0.820281       0.215967       0.277208
  7721.61       0.8805        2.25421       0.880612        2.05432       0.249661      -0.123612
  7721.86       0.937572        2.22158       0.938072        2.02208       0.258391      -0.132072
  7722.1       0.985467        2.19053       0.986343        1.99141       0.152661       0.0429286
  7722.36        1.03848        2.15852        1.03975        1.95979       0.214331      -0.0741831
  7722.59        1.08313        2.12942        1.08476        1.93105       0.148338      -0.399094
  7722.85        1.10645        2.09863        1.10848        1.90066       0.109958       0.385312
  7723.05        1.14383        2.0741        1.14617        1.87645       0.163838      -0.229159
  7723.41        1.18782        2.03249        1.19071        1.83539       0.115946      -0.001642
  7723.8        1.23639        1.98759        1.23989        1.79109       0.102677      -0.147092
  7724.2        1.26221        1.94356        1.26633        1.74769       0.0162773  -0.159217
  7724.59        1.26293        1.90129        1.26766        1.70603       0.0153352  -0.0206093
  7725.01        1.26032        1.85805        1.2657        1.66343      -0.0337712  -0.0362386
  7726.51        1.20018        1.71376        1.20789        1.52147      -0.043936   0.000895379
  7728.07        1.13983        1.58195        1.14996        1.39208      -0.0360768   0.00621172
  7729.59        1.09522        1.46978        1.10772        1.28228      -0.0110041   0.0181256
  7731.15        1.09272        1.37168        1.10763        1.18659      -0.000521143   0.00100687
  7732.68        1.09265        1.28968        1.10994        1.10697      -0.00904237  -0.00616264
  7734.21        1.07811        1.22104        1.09778        1.04071      -0.00102301  -0.000977733
  7735.77        1.06097        1.16396        1.08307       0.986062      -0.014867   0.00672499
  7737.31        1.06025        1.11923        1.08473       0.94371      -0.00556935  -0.0133218
  7738.84        1.02806        1.08461        1.05492       0.911467      -0.0181117   0.0061987
  7740.39        1.01041        1.05887        1.03967       0.888125      -0.0139792  -0.00533524
  7741.95       0.97963        1.04092        1.01132       0.872603      -0.0242657  -0.000693529
  7746.97       0.869451        1.02458       0.908925       0.864058      -0.0159974   0.00185266
  7751.94       0.806404        1.04063       0.853586       0.887811      -0.0109889   0.000981806
  7756.95       0.76737        1.05841       0.822336       0.91338      -0.000770902   0.00266912
  7761.95       0.794829        1.07274       0.857553       0.935462       0.00799369   0.00109429
  7766.97       0.850062        1.0839       0.920576       0.954416       0.0109098   9.75065e-05
  7771.99       0.907785        1.09205       0.986094       0.970363       0.0107057  -0.00133524
  7777       0.931748        1.09738        1.01783       0.983463       0.00205221  -0.000629996
  7784.15       0.938588        1.10052        1.03578       0.997705      -0.00389387  -0.000598484
  7791.28       0.914968        1.09896        1.02323        1.00722       0.000566351   0.000287311
  7798.44       0.906014        1.09327        1.02538        1.01264      -0.00323848  -0.000311117
  7805.61       0.881056        1.08402        1.01156        1.01453      -0.00344745   0.000134774
  7812.81       0.86301        1.07178        1.00469        1.01346       0.000265654  -5.43856e-06
  7819.99       0.844708        1.0572       0.997538        1.01003      -0.00376563   6.79985e-06
  7827.22       0.82665        1.04074       0.990701        1.00479      -0.00441187   2.46188e-05
  7834.44       0.809907        1.02315       0.985158       0.9984       0.00086076  -3.81237e-05
  7841.69       0.791074        1.0049       0.977583       0.991408      -0.00171619   0.000796964
  7845.32       0.802651       0.995744       0.994795       0.987888       0.00318912   0.00135133

File: Ir0_5Hz_ReaddMean_VPhsCorrect_6_182_mV_.csv.nor
# XDI/1.0 Athena/0.9.26
# Element.edge:                  K
# Element.symbol:                Co
# Column.1:                      energy eV
# Column.2:                      norm
# Column.3:                      nbkg
# Column.4:                      flat
# Column.5:                      fbkg
# Column.6:                      nder
# Column.7:                      nsec
# Athena.e0:                     7721.54
# Athena.eshift:                 0
# Athena.rbkg:                   1.0
# Athena.importance:             1
# Athena.standard:               None
# Athena.bkg_kweight:            3
# Athena.edge_step:              1.19466
# Athena.fixed_step:             no
# Athena.pre_edge_range:         -82.964 -19.904
# Athena.pre_edge_line:          0.202576 + 0.000188284 * E
# Athena.normalization_range:    45 125.256
# Athena.post_edge_polynomial:   15.7041 - 0.00166456 * E + 0 * E^2 + 0 * E^3
# Athena.spline_range_energy:    0.000 125.180
# Athena.clamps:                 0 24
# Athena.spline_range_k:         0.000 5.732
# Athena.kweight:                2
# Athena.window:                 hanning
# Athena.phase_correction:       no
# Athena.k_range:                .4 5.35
# Athena.dk:                     .5
# Athena.r_range:                .4 5.1
# Athena.dr:                     .5
# Athena.window:                 hanning
# Athena.plot_multiplier:        1
# Athena.y_offset:               0.2
# ///
#------------------------
#   e         norm        nbkg        flat        fbkg        nder        nsec
  7600.07      -0.215375      -0.0153753  -0.215375      -0.215375       0.012264  -0.00051543
  7624.56      -0.0485107   0.151489      -0.0485107  -0.0485107   0.00294821  -0.000206338
  7649.7      -0.0149769   0.185023      -0.0149769  -0.0149769  -0.000383697   9.54675e-05
  7674.73       0.0781575   0.278157       0.0781575   0.0781575   0.000253992  -0.000285169
  7700.01      -0.00896121   0.191039      -0.00896121  -0.00896121   0.000358003   0.000993665
  7700.72      -0.00220604   0.197794      -0.00220604  -0.00220604   0.00410612  -0.0226212
  7701.43      -0.00644068   0.193559      -0.00644068  -0.00644068   0.00218258   0.0170573
  7702.15      -0.00176997   0.19823      -0.00176997  -0.00176997  -0.00415952  -0.0178167
  7702.88      -0.00632862   0.193671      -0.00632862  -0.00632862  -0.00279502   0.00771829
  7703.6      -0.00682271   0.193177      -0.00682271  -0.00682271   0.0039061   0.011775
  7704.32      -0.00118154   0.198818      -0.00118154  -0.00118154   0.00359389  -0.0132496
  7705.02      -0.00245914   0.197541      -0.00245914  -0.00245914  -0.00447527   0.0033274
  7705.75      -0.00211583   0.197884      -0.00211583  -0.00211583   0.0159934   0.0319241
  7706.47       0.0150732   0.215073       0.0150732   0.0150732   0.0305069   0.0123404
  7707.2       0.0387663   0.238766       0.0387663   0.0387663   0.0253717  -0.0211592
  7707.91       0.0512185   0.251218       0.0512185   0.0512185   0.00409769  -0.0190021
  7708.65       0.0538356   0.253836       0.0538356   0.0538356  -2.30781e-06  -0.0163511
  7709.29       0.048749   0.248749       0.048749   0.048749   0.00237989   0.0240892
  7709.9       0.0529741   0.252974       0.0529741   0.0529741  -0.00370501  -0.0303172
  7710.51       0.0457933   0.245793       0.0457933   0.0457933  -0.00952204   0.0124164
  7711.11       0.0433259   0.243326       0.0433259   0.0433259   0.00876494   0.020671
  7711.73       0.0483262   0.248326       0.0483262   0.0483262  -0.00595164  -0.0169596
  7712.33       0.0469326   0.246933       0.0469326   0.0469326  -0.00682268   0.00952448
  7712.95       0.0491432   0.249143       0.0491432   0.0491432   0.0208459   0.0377579
  7713.54       0.0642832   0.264283       0.0642833   0.0642833   0.044369   0.0576943
  7714.16       0.10262       0.30262       0.10262       0.10262       0.0720217   0.00367104
  7714.78       0.141921       0.341921       0.141921       0.141921       0.0476549  -0.0348953
  7715.39       0.167876       0.367876       0.167876       0.167876       0.0489059  -0.00219149
  7715.97       0.192089       0.392089       0.192089       0.192089       0.0261015  -0.0383707
  7716.26       0.198712       0.398712       0.198712       0.198712       0.0188281   0.0813455
  7716.5       0.208986       0.408986       0.208986       0.208986       0.0833757   0.107372
  7716.73       0.225197       0.425197       0.225197       0.225197       0.0534323  -0.0873719
  7716.99       0.237359       0.437359       0.237359       0.237359       0.0395041   0.0102131
  7717.23       0.249629       0.449629       0.249629       0.249629       0.037713   0.0907587
  7717.46       0.266274       0.466274       0.266274       0.266274       0.0766397  -0.142948
  7717.71       0.27572       0.47572       0.27572       0.27572       0.0833899   0.300089
  7717.96       0.303998       0.503998       0.303998       0.303998       0.0849275  -0.130627
  7718.21       0.324368       0.524368       0.324368       0.324368       0.109723       0.0465734
  7718.44       0.346608       0.546608       0.346608       0.346608       0.0616573  -0.0975093
  7718.69       0.364436       0.564436       0.364436       0.364436       0.108231       0.275853
  7718.94       0.397178       0.597178       0.397178       0.397178       0.103226      -0.0230102
  7719.17       0.427099       0.627099       0.427099       0.427099       0.13116       0.000350689
  7719.42       0.459621       0.659621       0.459621       0.459621       0.189857       0.102456
  7719.67       0.497316       0.697316       0.497316       0.497316       0.121695       0.0145923
  7719.9       0.534193       0.734193       0.534193       0.534193       0.156182       0.124583
  7720.15       0.581649       0.781649       0.581649       0.581649       0.221841       0.020486
  7720.4       0.628389       0.828389       0.628389       0.628389       0.172835      -0.0995122
  7720.65       0.670114       0.870114       0.670114       0.670114       0.172819       0.188567
  7720.88       0.720141       0.920141       0.720141       0.720141       0.237729      -0.0708549
  7721.13       0.770232       0.970232       0.770232       0.770232       0.188454      -0.0364629
  7721.38       0.816655        1.01665       0.816655       0.816655       0.214387       0.271964
  7721.61       0.87672        2.25639       0.876832        2.0565       0.250358      -0.0910397
  7721.86       0.935614        2.2237       0.936114        2.02419       0.261096      -0.135597
  7722.1       0.985077        2.19259       0.985951        1.99347       0.155457      -0.0135111
  7722.36        1.03613        2.16052        1.0374        1.96179       0.215887       0.00200062
  7722.59        1.08348        2.13136        1.08511        1.93299       0.147695      -0.471401
  7722.85        1.10523        2.10052        1.10726        1.90254       0.118771       0.434229
  7723.05        1.14369        2.07594        1.14604        1.87829       0.162844      -0.250203
  7723.41        1.18765        2.03425        1.19054        1.83715       0.117484       0.0102298
  7723.8        1.238        1.98926        1.2415        1.79276       0.0999495  -0.163573
  7724.2        1.26301        1.94515        1.26714        1.74927       0.0213866  -0.149573
  7724.59        1.26444        1.9028        1.26918        1.70753       0.0131066  -0.0245068
  7725.01        1.26195        1.85948        1.26732        1.66486      -0.0326148  -0.0363796
  7726.51        1.20201        1.71491        1.20971        1.52261      -0.0451158   0.000211486
  7728.07        1.1402        1.58285        1.15032        1.39297      -0.0357669   0.00693713
  7729.59        1.09584        1.47047        1.10833        1.28296      -0.0114344   0.017383
  7731.15        1.09184        1.37217        1.10674        1.18707      -0.000610345   0.00256608
  7732.68        1.09401        1.29002        1.11129        1.10729      -0.00842431  -0.00705329
  7734.21        1.07962        1.22125        1.09927        1.04091      -0.00120879  -0.00152354
  7735.77        1.06132        1.16406        1.0834       0.986141      -0.0157995   0.00655851
  7737.31        1.05908        1.11924        1.08353       0.943701      -0.00506747  -0.0120974
  7738.84        1.02825        1.08455        1.05508       0.911389      -0.0177451   0.00601967
  7740.39        1.01153        1.05876        1.04076       0.887994      -0.0140837  -0.00668418
  7741.95       0.978449        1.04078        1.01011       0.872436      -0.0243768  -0.000167623
  7746.97       0.869557        1.02441       0.908996       0.863852      -0.0159085   0.0018003
  7751.94       0.806483        1.04049       0.853623       0.887633      -0.0111379   0.00099617
  7756.95       0.767783        1.05832       0.8227       0.91324      -0.000745089   0.00265295
  7761.95       0.795172        1.07269       0.857841       0.935359       0.00785051   0.00106369
  7766.97       0.849562        1.0839       0.920013       0.954349       0.0111729   0.000157016
  7771.99       0.907933        1.09209       0.986173       0.970329       0.0105354  -0.00135384
  7777       0.932074        1.09745        1.01808       0.98346       0.00211674  -0.000648471
  7784.15       0.938366        1.10064        1.03547       0.997739      -0.00382418  -0.000574935
  7791.28       0.915398        1.09911        1.02356        1.00728       0.000602152   0.000278784
  7798.44       0.90666        1.09346        1.02592        1.01272      -0.00332107  -0.000335984
  7805.61       0.880641        1.08422        1.01103        1.01461      -0.00339176   0.000173873
  7812.81       0.863555        1.07198        1.00511        1.01353       0.000229412  -4.0006e-05
  7819.99       0.844429        1.05737       0.997125        1.01007      -0.00381687   2.02109e-05
  7827.22       0.826242        1.04088       0.990149        1.00478      -0.00438459   4.93714e-05
  7834.44       0.810658        1.02322       0.985755       0.998319       0.000984589  -7.90725e-05
  7841.69       0.790839        1.00489       0.977183       0.991231      -0.00187657   0.000815089
  7845.32       0.802399       0.995679       0.994374       0.987653       0.00318463   0.00139427