Folder: Xray-Project/Dynamic XAS/Dynamic XAS Energy analyzed data/ESweep_0_5 Hz/Same Eo/Normalized Spectra (part 7)

File: Ir0_5Hz_ReaddMean_VPhsCorrect_13_248_mV_.csv.nor
# XDI/1.0 Athena/0.9.26
# Element.edge:                  K
# Element.symbol:                Co
# Column.1:                      energy eV
# Column.2:                      norm
# Column.3:                      nbkg
# Column.4:                      flat
# Column.5:                      fbkg
# Column.6:                      nder
# Column.7:                      nsec
# Athena.e0:                     7721.54
# Athena.eshift:                 0
# Athena.rbkg:                   1.0
# Athena.importance:             1
# Athena.standard:               None
# Athena.bkg_kweight:            3
# Athena.edge_step:              1.19596
# Athena.fixed_step:             no
# Athena.pre_edge_range:         -82.964 -19.904
# Athena.pre_edge_line:          0.324661 + 0.000172405 * E
# Athena.normalization_range:    45 125.256
# Athena.post_edge_polynomial:   15.7599 - 0.0016717 * E + 0 * E^2 + 0 * E^3
# Athena.spline_range_energy:    0.000 125.180
# Athena.clamps:                 0 24
# Athena.spline_range_k:         0.000 5.732
# Athena.kweight:                2
# Athena.window:                 hanning
# Athena.phase_correction:       no
# Athena.k_range:                .4 5.35
# Athena.dk:                     .5
# Athena.r_range:                .4 5.1
# Athena.dr:                     .5
# Athena.window:                 hanning
# Athena.plot_multiplier:        1
# Athena.y_offset:               0.2
# ///
#------------------------
#   e         norm        nbkg        flat        fbkg        nder        nsec
  7600.07      -0.214852      -0.0148525  -0.214852      -0.214852       0.0120227  -0.000495954
  7624.56      -0.0488537   0.151146      -0.0488537  -0.0488537   0.00299904  -0.000203537
  7649.7      -0.0143379   0.185662      -0.0143379  -0.0143379  -0.000296726   9.00402e-05
  7674.73       0.0763776   0.276378       0.0763776   0.0763776   0.000190437  -0.00027758
  7700.01      -0.00836257   0.191637      -0.00836257  -0.00836256   0.000375428   0.00091876
  7700.72      -0.00223411   0.197766      -0.00223411  -0.00223411   0.00338444  -0.0211773
  7701.43      -0.00639562   0.193604      -0.00639562  -0.00639562   0.00275798   0.0164529
  7702.15      -0.00196801   0.198032      -0.00196801  -0.00196801  -0.0034618  -0.0184257
  7702.88      -0.00708692   0.192913      -0.00708692  -0.00708692  -0.00325505   0.00955323
  7703.6      -0.00717712   0.192823      -0.00717712  -0.00717712   0.00260111   0.0121647
  7704.32      -0.000926702   0.199073      -0.000926701  -0.000926701   0.00555129  -0.0152221
  7705.02      -0.00261554   0.197384      -0.00261554  -0.00261554  -0.00560329   0.0028786
  7705.75      -0.00293063   0.197069      -0.00293063  -0.00293063   0.0162412   0.0350979
  7706.47       0.0152813   0.215281       0.0152813   0.0152813   0.0288624   0.00886844
  7707.2       0.0381919   0.238192       0.0381919   0.0381919   0.0257333  -0.0202133
  7707.91       0.0503615   0.250362       0.0503615   0.0503615   0.00559413  -0.0166245
  7708.65       0.053948   0.253948       0.053948   0.053948  -0.000110592  -0.0174656
  7709.29       0.0492117   0.249212       0.0492117   0.0492117   0.00372042   0.0239191
  7709.9       0.0537061   0.253706       0.0537061   0.0537061  -0.00632737  -0.0354536
  7710.51       0.0448636   0.244864       0.0448636   0.0448636  -0.00799254   0.0173447
  7711.11       0.0425724   0.242572       0.0425724   0.0425724   0.00668155   0.0136414
  7711.73       0.0451837   0.245184       0.0451836   0.0451836  -0.00607138  -0.0132185
  7712.33       0.0428302   0.24283       0.0428302   0.0428302  -0.0115935   0.0129046
  7712.95       0.0453508   0.245351       0.0453508   0.0453508   0.0179039   0.0341296
  7713.54       0.0595289   0.259529       0.0595289   0.0595289   0.0425792   0.0575903
  7714.16       0.0968011   0.296801       0.0968011   0.0968011   0.0726669   0.0116313
  7714.78       0.138075       0.338075       0.138075       0.138075       0.0511591  -0.0538697
  7715.39       0.158967       0.358967       0.158967       0.158967       0.0405763   0.0185843
  7715.97       0.185527       0.385527       0.185527       0.185527       0.0320519  -0.0697245
  7716.26       0.189139       0.389139       0.189139       0.189139       0.0272827   0.207017
  7716.5       0.203871       0.403871       0.203871       0.203871       0.0576682  -0.0388432
  7716.73       0.2157       0.4157       0.2157       0.2157       0.053336   0.0196053
  7716.99       0.229825       0.429825       0.229825       0.229825       0.0420174  -0.0947109
  7717.23       0.237967       0.437967       0.237967       0.237967       0.053545   0.224299
  7717.46       0.258366       0.458366       0.258366       0.258366       0.0445505  -0.234836
  7717.71       0.266364       0.466364       0.266364       0.266364       0.0905658   0.23282
  7717.96       0.288978       0.488978       0.288978       0.288978       0.0721907   0.0828164
  7718.21       0.315957       0.515957       0.315957       0.315957       0.10874      -0.190807
  7718.44       0.33034       0.53034       0.33034       0.33034       0.0744887   0.159614
  7718.69       0.355618       0.555618       0.355618       0.355618       0.0881831  -0.0138207
  7718.94       0.379214       0.579214       0.379214       0.379214       0.134682       0.254593
  7719.17       0.416567       0.616567       0.416567       0.416567       0.12772      -0.277002
  7719.42       0.440178       0.640178       0.440178       0.440178       0.152218       0.259544
  7719.67       0.478295       0.678295       0.478295       0.478295       0.122451       0.0361984
  7719.9       0.51686       0.71686       0.51686       0.51686       0.191044       0.0430206
  7720.15       0.561056       0.761056       0.561056       0.561056       0.216083       0.0904463
  7720.4       0.608626       0.808626       0.608626       0.608626       0.137455      -0.129528
  7720.65       0.64934       0.84934       0.64934       0.64934       0.175418       0.287685
  7720.88       0.704195       0.904195       0.704195       0.704195       0.238445      -0.184358
  7721.13       0.752428       0.952428       0.752428       0.752428       0.207166       0.0696603
  7721.38       0.803135        1.00314       0.803135       0.803135       0.222081       0.253021
  7721.61       0.866137        2.26776       0.866248        2.06787       0.245356      -0.139698
  7721.86       0.925213        2.23477       0.92571        2.03526       0.266851      -0.111494
  7722.1       0.976193        2.20337       0.977063        2.00424       0.165906       0.0246382
  7722.36        1.03128        2.171        1.03254        1.97226       0.224579      -0.139339
  7722.59        1.07396        2.14157        1.07558        1.9432       0.160526      -0.253405
  7722.85        1.1042        2.11044        1.10622        1.91246       0.131042       0.236424
  7723.05        1.14005        2.08564        1.14238        1.88797       0.170505      -0.149529
  7723.41        1.18859        2.04356        1.19146        1.84644       0.128951      -0.00687929
  7723.8        1.2414        1.99815        1.24488        1.80163       0.0969336  -0.16204
  7724.2        1.26915        1.95362        1.27324        1.75772       0.0370039  -0.148467
  7724.59        1.27345        1.91088        1.27815        1.71558       0.0200605  -0.0367476
  7725.01        1.27198        1.86714        1.27733        1.67249      -0.0340247  -0.0432321
  7726.51        1.20618        1.72121        1.21384        1.52887      -0.0500482   0.00119564
  7728.07        1.14069        1.58789        1.15075        1.39795      -0.0391652   0.00898394
  7729.59        1.0975        1.47442        1.10991        1.28683      -0.00973825   0.0162004
  7731.15        1.09189        1.37516        1.1067        1.18997      -0.000999378   0.00479542
  7732.68        1.09779        1.29218        1.11497        1.10936      -0.00710295  -0.00894917
  7734.21        1.08268        1.22272        1.10223        1.04226      -0.00163953  -0.00214025
  7735.77        1.06219        1.16493        1.08414       0.986883      -0.0159919   0.00777462
  7737.31        1.06069        1.11963        1.085       0.943946      -0.00478811  -0.0124874
  7738.84        1.02968        1.08455        1.05637       0.911229      -0.0175476   0.00626335
  7740.39        1.01337        1.05845        1.04244       0.887512      -0.0149112  -0.00713639
  7741.95       0.979609        1.04023        1.01108       0.871703      -0.0241288   9.54681e-06
  7746.97       0.871454        1.02351       0.910664       0.862721      -0.0161805   0.00165496
  7751.94       0.805499        1.0396       0.852366       0.886469      -0.0111972   0.00107917
  7756.95       0.765972        1.05755       0.820571       0.912145      -0.00100063   0.00259424
  7761.95       0.791077        1.07208       0.853383       0.934385       0.00773737   0.00134291
  7766.97       0.850232        1.08349       0.920276       0.953535       0.011246  -0.000116449
  7771.99       0.906514        1.09192       0.984301       0.969706       0.0111381  -0.00120269
  7777       0.932378        1.09753        1.01789       0.983043       0.00218814  -0.000653955
  7784.15       0.94089        1.10108        1.03743       0.997625      -0.00396548  -0.000630581
  7791.28       0.917305        1.09991        1.02484        1.00744       0.000961776   0.000259582
  7798.44       0.906964        1.09454        1.02553        1.01311      -0.00359553  -0.000270349
  7805.61       0.882707        1.08551        1.01235        1.01514      -0.00338748   0.000104007
  7812.81       0.863773        1.07334        1.0045        1.01408       7.33662e-05   7.57369e-06
  7819.99       0.845255        1.05866       0.997066        1.01047      -0.00360391   4.21283e-06
  7827.22       0.826844        1.0419       0.989802        1.00486      -0.00442772   5.35572e-05
  7834.44       0.811254        1.02375       0.985338       0.997835       0.000861698  -5.25805e-05
  7841.69       0.792822        1.00466       0.978087       0.989926      -0.00181944   0.000732951
  7845.32       0.802911       0.994965       0.993774       0.985828       0.00277949   0.00126692

File: Ir0_5Hz_ReaddMean_VPhsCorrect_14_242_mV_.csv.nor
# XDI/1.0 Athena/0.9.26
# Element.edge:                  K
# Element.symbol:                Co
# Column.1:                      energy eV
# Column.2:                      norm
# Column.3:                      nbkg
# Column.4:                      flat
# Column.5:                      fbkg
# Column.6:                      nder
# Column.7:                      nsec
# Athena.e0:                     7721.54
# Athena.eshift:                 0
# Athena.rbkg:                   1.0
# Athena.importance:             1
# Athena.standard:               None
# Athena.bkg_kweight:            3
# Athena.edge_step:              1.19612
# Athena.fixed_step:             no
# Athena.pre_edge_range:         -82.964 -19.904
# Athena.pre_edge_line:          0.267474 + 0.000179807 * E
# Athena.normalization_range:    45 125.256
# Athena.post_edge_polynomial:   15.7927 - 0.00167593 * E + 0 * E^2 + 0 * E^3
# Athena.spline_range_energy:    0.000 125.180
# Athena.clamps:                 0 24
# Athena.spline_range_k:         0.000 5.732
# Athena.kweight:                2
# Athena.window:                 hanning
# Athena.phase_correction:       no
# Athena.k_range:                .4 5.35
# Athena.dk:                     .5
# Athena.r_range:                .4 5.1
# Athena.dr:                     .5
# Athena.window:                 hanning
# Athena.plot_multiplier:        1
# Athena.y_offset:               0.2
# ///
#------------------------
#   e         norm        nbkg        flat        fbkg        nder        nsec
  7600.07      -0.214367      -0.0143666  -0.214367      -0.214367       0.0119903  -0.000490976
  7624.56      -0.0478729   0.152127      -0.0478729  -0.0478729   0.00300497  -0.000206
  7649.7      -0.0144943   0.185506      -0.0144943  -0.0144943  -0.000301652   9.07149e-05
  7674.73       0.0755112   0.275511       0.0755112   0.0755112   0.000196454  -0.000274258
  7700.01      -0.0078351   0.192165      -0.0078351  -0.0078351   0.000347043   0.000798
  7700.72      -0.00278548   0.197215      -0.00278548  -0.00278548   0.00366622  -0.0176961
  7701.43      -0.00633495   0.193665      -0.00633495  -0.00633495   0.00264981   0.0145384
  7702.15      -0.00229364   0.197706      -0.00229364  -0.00229364  -0.00435747  -0.0175003
  7702.88      -0.00732007   0.19268      -0.00732007  -0.00732007  -0.00211983   0.0104092
  7703.6      -0.00686954   0.19313      -0.00686954  -0.00686954   0.00210407   0.00976208
  7704.32      -0.00132778   0.198672      -0.00132778  -0.00132778   0.00572062  -0.013038
  7705.02      -0.0025939   0.197406      -0.0025939  -0.0025939  -0.0057756   0.00177625
  7705.75      -0.00302331   0.196977      -0.00302331  -0.00302331   0.0176325   0.0352595
  7706.47       0.0151607   0.215161       0.0151607   0.0151607   0.028265   0.00868464
  7707.2       0.0379474   0.237947       0.0379474   0.0379474   0.0253934  -0.0189406
  7707.91       0.0506587   0.250659       0.0506587   0.0506587   0.00543562  -0.0189655
  7708.65       0.0535586   0.253559       0.0535586   0.0535586   0.000263573  -0.0146911
  7709.29       0.0494717   0.249472       0.0494717   0.0494717   0.0035205   0.0212753
  7709.9       0.0535892   0.253589       0.0535892   0.0535892  -0.00679575  -0.0346307
  7710.51       0.0446802   0.24468       0.0446802   0.0446802  -0.00769399   0.0186311
  7711.11       0.042792   0.242792       0.042792   0.042792   0.00581473   0.0110826
  7711.73       0.0448856   0.244886       0.0448856   0.0448856  -0.00526271  -0.0115971
  7712.33       0.0426263   0.242626       0.0426263   0.0426263  -0.0114613   0.0130996
  7712.95       0.0453173   0.245317       0.0453173   0.0453173   0.0162834   0.0313171
  7713.54       0.0586838   0.258684       0.0586838   0.0586838   0.0421926   0.0601404
  7714.16       0.0960735   0.296073       0.0960735   0.0960735   0.0726409   0.0132833
  7714.78       0.138092       0.338092       0.138092       0.138092       0.0517694  -0.0584035
  7715.39       0.158043       0.358043       0.158043       0.158043       0.0410557   0.0241865
  7715.97       0.185645       0.385645       0.185645       0.185645       0.0318242  -0.0772563
  7716.26       0.188765       0.388765       0.188765       0.188765       0.0290673   0.211185
  7716.5       0.203306       0.403306       0.203306       0.203306       0.054973  -0.00151266
  7716.73       0.217163       0.417162       0.217163       0.217163       0.050418  -0.0608898
  7716.99       0.228427       0.428427       0.228427       0.228427       0.0435979  -0.0310471
  7717.23       0.23747       0.43747       0.23747       0.23747       0.0529245   0.201102
  7717.46       0.257389       0.457389       0.257389       0.257389       0.0448644  -0.208616
  7717.71       0.266441       0.466441       0.266441       0.266441       0.0945573   0.188212
  7717.96       0.287329       0.487329       0.287329       0.287329       0.0664706   0.124246
  7718.21       0.314973       0.514973       0.314973       0.314973       0.109586      -0.209146
  7718.44       0.328898       0.528898       0.328898       0.328898       0.0777555   0.179912
  7718.69       0.354938       0.554938       0.354938       0.354938       0.084289  -0.0554311
  7718.94       0.376922       0.576922       0.376922       0.376922       0.136136       0.296927
  7719.17       0.415202       0.615202       0.415202       0.415202       0.127065      -0.2953
  7719.42       0.4387       0.6387       0.4387       0.4387       0.149463       0.235062
  7719.67       0.475284       0.675284       0.475284       0.475284       0.123691       0.0738697
  7719.9       0.514625       0.714625       0.514625       0.514625       0.193884       0.0489963
  7720.15       0.560028       0.760028       0.560028       0.560028       0.21594       0.0530892
  7720.4       0.606642       0.806642       0.606642       0.606642       0.131647      -0.105782
  7720.65       0.647849       0.847849       0.647849       0.647849       0.186136       0.28635
  7720.88       0.703088       0.903088       0.703088       0.703088       0.227742      -0.1941
  7721.13       0.751128       0.951128       0.751128       0.751128       0.204242       0.097743
  7721.38       0.803258        1.00326       0.803258       0.803258       0.231063       0.231683
  7721.61       0.866344        2.26829       0.866456        2.0684       0.243874      -0.168083
  7721.86       0.92378        2.2353       0.924279        2.0358       0.2658      -0.0712189
  7722.1       0.975414        2.20391       0.976289        2.00478       0.166381       0.0199665
  7722.36        1.03089        2.17154        1.03216        1.97281       0.231543      -0.14112
  7722.59        1.07382        2.14211        1.07545        1.94375       0.153557      -0.251434
  7722.85        1.10445        2.11098        1.10648        1.91301       0.137432       0.22482
  7723.05        1.14006        2.08618        1.14241        1.88852       0.17545      -0.139482
  7723.41        1.1891        2.0441        1.19199        1.847       0.123141      -0.0142693
  7723.8        1.24133        1.99869        1.24484        1.80219       0.101122      -0.154287
  7724.2        1.26971        1.95417        1.27384        1.75829       0.0372647  -0.14437
  7724.59        1.27528        1.91142        1.28002        1.71615       0.0170902  -0.0464878
  7725.01        1.27357        1.86769        1.27895        1.67307      -0.0348162  -0.0427215
  7726.51        1.20757        1.72174        1.21527        1.52945      -0.0491365   0.000535546
  7728.07        1.14024        1.5884        1.15037        1.39853      -0.0395235   0.0100485
  7729.59        1.09775        1.47491        1.11024        1.2874      -0.0096232   0.0161593
  7731.15        1.09275        1.37562        1.10765        1.19053      -0.000736836   0.00414708
  7732.68        1.09771        1.29261        1.11499        1.10989      -0.00738646  -0.0083799
  7734.21        1.08299        1.22311        1.10265        1.04277      -0.00168947  -0.00240775
  7735.77        1.06224        1.16528        1.08433       0.987362      -0.0158517   0.00769468
  7737.31        1.06031        1.11993        1.08478       0.944392      -0.00496038  -0.0122985
  7738.84        1.02932        1.08479        1.05617       0.911639      -0.0177302   0.00628134
  7740.39        1.01307        1.05864        1.04231       0.887884      -0.0150806  -0.00671488
  7741.95       0.980379        1.04037        1.01205       0.872035      -0.023703  -0.000276312
  7746.97       0.870954        1.02347       0.910406       0.862923      -0.0164638   0.00173746
  7751.94       0.805791        1.0394       0.852948       0.886558      -0.0112235   0.00104159
  7756.95       0.766122        1.05722       0.821057       0.912154      -0.001106   0.00259168
  7761.95       0.791021        1.07166       0.853711       0.934346       0.00780132   0.001302
  7766.97       0.848935        1.083       0.91941       0.953477       0.0111708  -9.85078e-06
  7771.99       0.906648        1.09138       0.984915       0.96965       0.0114231  -0.00128211
  7777       0.93194        1.09697        1.01798       0.983006       0.00197506  -0.000651309
  7784.15       0.939751        1.1005        1.03689       0.997635      -0.00399146  -0.000581089
  7791.28       0.917985        1.09931        1.02619        1.00751       0.000899819   0.000203504
  7798.44       0.906591        1.09393        1.02589        1.01323      -0.00336759  -0.000244199
  7805.61       0.882621        1.08485        1.01306        1.01529      -0.00354364   9.90548e-05
  7812.81       0.863717        1.07262        1.00532        1.01422       8.10219e-05  -2.26618e-05
  7819.99       0.843672        1.05781       0.99642        1.01055      -0.00366799   3.33599e-05
  7827.22       0.825245        1.04085       0.989209        1.00481      -0.00440516   5.98549e-05
  7834.44       0.809968        1.02242       0.985125       0.997581       0.000851482  -4.02644e-05
  7841.69       0.792496        1.00295       0.978905       0.989362      -0.00179599   0.000681733
  7845.32       0.801717       0.993026       0.993757       0.985066       0.00254017   0.00119453