Folder: Xray-Project/Dynamic XAS/Dynamic XAS Energy analyzed data/ESweep_0_5 Hz/Same Eo/Normalized Spectra (part 10)

File: Ir0_5Hz_ReaddMean_VPhsCorrect_19_159_mV_.csv.nor
# XDI/1.0 Athena/0.9.26
# Element.edge:                  K
# Element.symbol:                Co
# Column.1:                      energy eV
# Column.2:                      norm
# Column.3:                      nbkg
# Column.4:                      flat
# Column.5:                      fbkg
# Column.6:                      nder
# Column.7:                      nsec
# Athena.e0:                     7721.54
# Athena.eshift:                 0
# Athena.rbkg:                   1.0
# Athena.importance:             1
# Athena.standard:               None
# Athena.bkg_kweight:            3
# Athena.edge_step:              1.19672
# Athena.fixed_step:             no
# Athena.pre_edge_range:         -82.964 -19.904
# Athena.pre_edge_line:          0.258607 + 0.000180944 * E
# Athena.normalization_range:    45 125.256
# Athena.post_edge_polynomial:   15.8621 - 0.00168485 * E + 0 * E^2 + 0 * E^3
# Athena.spline_range_energy:    0.000 125.180
# Athena.clamps:                 0 24
# Athena.spline_range_k:         0.000 5.732
# Athena.kweight:                2
# Athena.window:                 hanning
# Athena.phase_correction:       no
# Athena.k_range:                .4 5.35
# Athena.dk:                     .5
# Athena.r_range:                .4 5.1
# Athena.dr:                     .5
# Athena.window:                 hanning
# Athena.plot_multiplier:        1
# Athena.y_offset:               0.2
# ///
#------------------------
#   e         norm        nbkg        flat        fbkg        nder        nsec
  7600.07      -0.21321      -0.0132096  -0.21321      -0.21321       0.0119475  -0.000488513
  7624.56      -0.0471267   0.152873      -0.0471267  -0.0471267   0.0029964  -0.000207297
  7649.7      -0.0150361   0.184964      -0.0150361  -0.0150361  -0.00031231   9.31856e-05
  7674.73       0.0752333   0.275233       0.0752333   0.0752333   0.000178616  -0.000275329
  7700.01      -0.00852691   0.191473      -0.00852691  -0.00852691   0.000359523   0.000945791
  7700.72      -0.00212074   0.197879      -0.00212074  -0.00212074   0.00508177  -0.0215962
  7701.43      -0.00620677   0.193793      -0.00620677  -0.00620677   0.000670796   0.0158346
  7702.15      -0.00202713   0.197973      -0.00202713  -0.00202713  -0.00363738  -0.0161222
  7702.88      -0.00619926   0.193801      -0.00619926  -0.00619926  -0.00245972   0.0076209
  7703.6      -0.00635948   0.193641      -0.00635948  -0.00635948   0.00261992   0.0121601
  7704.32      -0.00018181   0.199818      -0.00018181  -0.00018181   0.00496501  -0.0156932
  7705.02      -0.0021781   0.197822      -0.0021781  -0.0021781  -0.00486312   0.00449923
  7705.75      -0.00199578   0.198004      -0.00199578  -0.00199578   0.0162795   0.0325434
  7706.47       0.0153606   0.215361       0.0153606   0.0153606   0.0281369   0.00990027
  7707.2       0.0379499   0.23795       0.0379499   0.0379499   0.026347  -0.0151469
  7707.91       0.0524456   0.252446       0.0524456   0.0524456   0.00530669  -0.0253269
  7708.65       0.0537977   0.253798       0.0537977   0.0537977   0.00136238  -0.0122953
  7709.29       0.0494302   0.24943       0.0494302   0.0494302   0.00264249   0.0237072
  7709.9       0.054196   0.254196       0.054196   0.054196  -0.00671186  -0.03814
  7710.51       0.0446145   0.244615       0.0446145   0.0446145  -0.00973043   0.0214303
  7711.11       0.0430902   0.24309       0.0430902   0.0430902   0.00850606   0.00845405
  7711.73       0.0445999   0.2446       0.0445999   0.0445999  -0.00853583  -0.00934641
  7712.33       0.0426043   0.242604       0.0426043   0.0426043  -0.00788927   0.00954586
  7712.95       0.044209   0.244209       0.044209   0.044209   0.0145684   0.0361757
  7713.54       0.0582304   0.25823       0.0582304   0.0582304   0.04198   0.0559506
  7714.16       0.0947043   0.294704       0.0947043   0.0947043   0.0749786   0.0186547
  7714.78       0.137859       0.337859       0.137859       0.137859       0.0479361  -0.0614695
  7715.39       0.157799       0.357799       0.157799       0.157799       0.0446987   0.025242
  7715.97       0.185759       0.385759       0.185759       0.185759       0.0224509  -0.0717638
  7716.26       0.189777       0.389777       0.189777       0.189777       0.0414327   0.158219
  7716.5       0.20212       0.40212       0.20212       0.20212       0.0657139   0.0855025
  7716.73       0.21902       0.41902       0.21902       0.21902       0.040958  -0.178887
  7716.99       0.226169       0.426169       0.226169       0.226169       0.0375866   0.0283707
  7717.23       0.234664       0.434664       0.234664       0.234664       0.0491709   0.231045
  7717.46       0.255779       0.455779       0.255779       0.255779       0.0485414  -0.203297
  7717.71       0.266445       0.466445       0.266445       0.266445       0.0854878   0.146719
  7717.96       0.286367       0.486367       0.286367       0.286367       0.0896731   0.108006
  7718.21       0.312134       0.512134       0.312134       0.312134       0.0945431  -0.178262
  7718.44       0.326108       0.526108       0.326108       0.326108       0.0965771   0.165741
  7718.69       0.351326       0.551326       0.351326       0.351326       0.075397  -0.0366959
  7718.94       0.373575       0.573575       0.373575       0.373575       0.132554       0.279327
  7719.17       0.411082       0.611082       0.411082       0.411082       0.122719      -0.174269
  7719.42       0.441151       0.641151       0.441151       0.441151       0.147043       0.0500845
  7719.67       0.473412       0.673412       0.473412       0.473412       0.13736       0.103787
  7719.9       0.510401       0.710401       0.510401       0.510401       0.183351       0.138588
  7720.15       0.558849       0.758849       0.558849       0.558849       0.202451      -0.0303256
  7720.4       0.603665       0.803665       0.603665       0.603665       0.164336      -0.0827903
  7720.65       0.644454       0.844454       0.644454       0.644454       0.186068       0.240996
  7720.88       0.69666       0.89666       0.69666       0.69666       0.208153      -0.0137827
  7721.13       0.752707       0.952707       0.752707       0.752707       0.194992      -0.0480634
  7721.38       0.804234        1.00423       0.804234       0.804234       0.253191       0.225635
  7721.61       0.866391        2.26629       0.866503        2.0664       0.219576      -0.203325
  7721.86       0.920681        2.23333       0.921183        2.03384       0.291592      -0.013875
  7722.1       0.972461        2.20198       0.97334        2.00286       0.145351       0.0271979
  7722.36        1.02855        2.16965        1.02982        1.97092       0.230375      -0.142043
  7722.59        1.072        2.14026        1.07364        1.9419       0.173623      -0.242986
  7722.85        1.10371        2.10916        1.10575        1.9112       0.122923       0.1918
  7723.05        1.13861        2.08439        1.14096        1.88674       0.179847      -0.111891
  7723.41        1.18891        2.04236        1.19182        1.84527       0.123774      -0.0262778
  7723.8        1.24071        1.997        1.24423        1.80052       0.105061      -0.138262
  7724.2        1.27118        1.95253        1.27532        1.75668       0.0324536  -0.171611
  7724.59        1.27457        1.90983        1.27933        1.71459       0.0208558  -0.0399452
  7725.01        1.27162        1.86615        1.27702        1.67156      -0.0362707  -0.0379848
  7726.51        1.2078        1.72038        1.21555        1.52813      -0.0479996  -0.000341905
  7728.07        1.14059        1.58721        1.15077        1.39738      -0.0401419   0.00919603
  7729.59        1.09622        1.47386        1.10877        1.28641      -0.00989341   0.0171382
  7731.15        1.09162        1.3747        1.1066        1.18968      -0.000443037   0.00371643
  7732.68        1.09595        1.2918        1.11332        1.10917      -0.00760315  -0.00742024
  7734.21        1.08286        1.22239        1.10262        1.04215      -0.000475897  -0.00292063
  7735.77        1.06254        1.16465        1.08473       0.986839      -0.016825   0.00752189
  7737.31        1.06061        1.11936        1.0852       0.94395      -0.0042321  -0.012738
  7738.84        1.02859        1.08429        1.05556       0.911267      -0.0192123   0.00692508
  7740.39        1.01282        1.05819        1.04221       0.887573      -0.0134037  -0.00726135
  7741.95       0.979303        1.03995        1.01113       0.871775      -0.0248331  -6.47138e-05
  7746.97       0.870718        1.02313       0.910364       0.862774      -0.0160933   0.00168728
  7751.94       0.805141        1.03908       0.852529       0.886469      -0.0112507   0.00101227
  7756.95       0.764318        1.0569       0.819523       0.912103      -0.000831522   0.00273555
  7761.95       0.791644        1.07132       0.854642       0.934319       0.00773671   0.00119872
  7766.97       0.849385        1.08264       0.920206       0.953462       0.011313  -9.91681e-05
  7771.99       0.904684        1.09098       0.983335       0.969636       0.0109807  -0.00111521
  7777       0.93177        1.09652        1.01823       0.982986       0.00236657  -0.000718879
  7784.15       0.939207        1.09998        1.03682       0.997597      -0.00421573  -0.000592463
  7791.28       0.916489        1.09872        1.02522        1.00745       0.000808495   0.000252028
  7798.44       0.906629        1.09326        1.02652        1.01315      -0.00347567  -0.000309642
  7805.61       0.880838        1.08413        1.01192        1.0152      -0.0033873   0.000133477
  7812.81       0.861891        1.07184        1.00419        1.01414       0.000199737   1.38703e-05
  7819.99       0.843684        1.05701       0.997182        1.01051      -0.00371744   1.62758e-05
  7827.22       0.826216        1.04006       0.990985        1.00483      -0.00465167   1.58019e-05
  7834.44       0.809604        1.02169       0.985622       0.997704       0.00108023  -3.63103e-05
  7841.69       0.790999        1.00231       0.978323       0.989634      -0.00191019   0.000714524
  7845.32       0.800517       0.992449       0.9935       0.985432       0.0026219   0.00124851

File: Ir0_5Hz_ReaddMean_VPhsCorrect_20_134_mV_.csv.nor
# XDI/1.0 Athena/0.9.26
# Element.edge:                  K
# Element.symbol:                Co
# Column.1:                      energy eV
# Column.2:                      norm
# Column.3:                      nbkg
# Column.4:                      flat
# Column.5:                      fbkg
# Column.6:                      nder
# Column.7:                      nsec
# Athena.e0:                     7721.54
# Athena.eshift:                 0
# Athena.rbkg:                   1.0
# Athena.importance:             1
# Athena.standard:               None
# Athena.bkg_kweight:            3
# Athena.edge_step:              1.19683
# Athena.fixed_step:             no
# Athena.pre_edge_range:         -82.964 -19.904
# Athena.pre_edge_line:          0.244373 + 0.000182831 * E
# Athena.normalization_range:    45 125.256
# Athena.post_edge_polynomial:   15.8918 - 0.00168864 * E + 0 * E^2 + 0 * E^3
# Athena.spline_range_energy:    0.000 125.180
# Athena.clamps:                 0 24
# Athena.spline_range_k:         0.000 5.732
# Athena.kweight:                2
# Athena.window:                 hanning
# Athena.phase_correction:       no
# Athena.k_range:                .4 5.35
# Athena.dk:                     .5
# Athena.r_range:                .4 5.1
# Athena.dr:                     .5
# Athena.window:                 hanning
# Athena.plot_multiplier:        1
# Athena.y_offset:               0.2
# ///
#------------------------
#   e         norm        nbkg        flat        fbkg        nder        nsec
  7600.07      -0.213442      -0.0134416  -0.213442      -0.213442       0.0118992  -0.000483518
  7624.56      -0.0472463   0.152754      -0.0472463  -0.0472463   0.00303212  -0.000207315
  7649.7      -0.0150516   0.184948      -0.0150516  -0.0150516  -0.000342011   9.37847e-05
  7674.73       0.0756964   0.275696       0.0756964   0.0756964   0.000188739  -0.000276559
  7700.01      -0.00836234   0.191638      -0.00836234  -0.00836234   0.000387032   0.000907196
  7700.72      -0.00232184   0.197678      -0.00232184  -0.00232184   0.00493656  -0.0202328
  7701.43      -0.00611081   0.193889      -0.00611081  -0.00611081   0.000764839   0.0143759
  7702.15      -0.00239621   0.197604      -0.00239621  -0.00239621  -0.00393977  -0.0143487
  7702.88      -0.00611469   0.193885      -0.00611469  -0.00611469  -0.00271473   0.00641844
  7703.6      -0.00645342   0.193547      -0.00645342  -0.00645342   0.00250356   0.0106581
  7704.32      -0.00123823   0.198762      -0.00123823  -0.00123823   0.00516061  -0.0123775
  7705.02      -0.00248416   0.197516      -0.00248416  -0.00248416  -0.00410508   0.00221166
  7705.75      -0.00267211   0.197328      -0.00267211  -0.00267211   0.0152736   0.0330068
  7706.47       0.0145622   0.214562       0.0145622   0.0145622   0.0283683   0.0122839
  7707.2       0.0382713   0.238271       0.0382713   0.0382713   0.0267823  -0.0184232
  7707.91       0.0521675   0.252167       0.0521675   0.0521675   0.00539259  -0.0234115
  7708.65       0.0539223   0.253922       0.0539223   0.0539223   0.00085816  -0.0148414
  7709.29       0.0487586   0.248759       0.0487586   0.0487586   0.00251825   0.0266314
  7709.9       0.0538671   0.253867       0.0538671   0.0538671  -0.00613397  -0.0390912
  7710.51       0.0442698   0.24427       0.0442698   0.0442698  -0.0104538   0.0213517
  7711.11       0.0427015   0.242701       0.0427015   0.0427015   0.00773268   0.00951584
  7711.73       0.0445541   0.244554       0.0445541   0.0445541  -0.00850598  -0.00994841
  7712.33       0.0426719   0.242672       0.0426719   0.0426719  -0.00620097   0.00997362
  7712.95       0.0445555   0.244555       0.0445555   0.0445555   0.0142052   0.0337484
  7713.54       0.0580007   0.258001       0.0580007   0.0580007   0.0422869   0.0573744
  7714.16       0.0944093   0.294409       0.0944093   0.0944093   0.0764003   0.0205198
  7714.78       0.138208       0.338208       0.138208       0.138208       0.0459144  -0.0614579
  7715.39       0.15879       0.35879       0.15879       0.15879       0.0461675   0.020492
  7715.97       0.185716       0.385715       0.185715       0.185715       0.0216279  -0.0620291
  7716.26       0.190521       0.390521       0.190521       0.190521       0.0404937   0.14242
  7716.5       0.202657       0.402657       0.202657       0.202657       0.0687259   0.07514
  7716.73       0.218744       0.418744       0.218744       0.218744       0.0383161  -0.163899
  7716.99       0.225951       0.425951       0.225951       0.225951       0.0343186   0.0258312
  7717.23       0.234357       0.434357       0.234357       0.234357       0.0477432   0.229124
  7717.46       0.255279       0.455279       0.255279       0.255279       0.0567236  -0.192835
  7717.71       0.266363       0.466363       0.266363       0.266363       0.0819865   0.134575
  7717.96       0.285948       0.485948       0.285948       0.285948       0.0957784   0.110331
  7718.21       0.311516       0.511516       0.311516       0.311516       0.0885806  -0.150672
  7718.44       0.326947       0.526947       0.326947       0.326947       0.0987454   0.124323
  7718.69       0.35117       0.55117       0.35117       0.35117       0.0806428  -0.00835071
  7718.94       0.374057       0.574057       0.374057       0.374057       0.122049       0.276415
  7719.17       0.412005       0.612005       0.412005       0.412005       0.124861      -0.174568
  7719.42       0.442534       0.642534       0.442534       0.442534       0.145418       0.0160167
  7719.67       0.473266       0.673266       0.473266       0.473266       0.147106       0.13101
  7719.9       0.510413       0.710413       0.510413       0.510413       0.174185       0.162402
  7720.15       0.560512       0.760512       0.560512       0.560512       0.204126      -0.0802411
  7720.4       0.604089       0.804089       0.604089       0.604089       0.174482      -0.071006
  7720.65       0.644339       0.844339       0.644339       0.644339       0.180452       0.266203
  7720.88       0.697508       0.897508       0.697508       0.697508       0.204623      -0.0100406
  7721.13       0.75484       0.95484       0.75484       0.75484       0.193167      -0.110218
  7721.38       0.804049        1.00405       0.804049       0.804049       0.255701       0.261544
  7721.61       0.866136        2.26985       0.866249        2.06997       0.220282      -0.196922
  7721.86       0.920741        2.23676       0.921245        2.03726       0.290434      -0.036806
  7722.1       0.97155        2.20527       0.972432        2.00615       0.150331       0.0329125
  7722.36        1.02699        2.1728        1.02826        1.97408       0.221657      -0.106915
  7722.59        1.07192        2.14328        1.07356        1.94492       0.176449      -0.279808
  7722.85        1.10295        2.11205        1.10499        1.9141       0.123021       0.223479
  7723.05        1.13881        2.08717        1.14117        1.88953       0.17744      -0.133743
  7723.41        1.18881        2.04497        1.19172        1.84788       0.125667      -0.0276555
  7723.8        1.24004        1.99941        1.24358        1.80295       0.104694      -0.139779
  7724.2        1.26972        1.95476        1.27387        1.75892       0.0319872  -0.158858
  7724.59        1.27431        1.91188        1.27908        1.71665       0.0189046  -0.0533025
  7725.01        1.27044        1.86802        1.27586        1.67344      -0.0359707  -0.0352713
  7726.51        1.20712        1.72165        1.21489        1.52942      -0.0480076  -0.000116427
  7728.07        1.14098        1.58795        1.15118        1.39816      -0.0397761   0.00870494
  7729.59        1.09651        1.47417        1.1091        1.28676      -0.00959359   0.0168816
  7731.15        1.0912        1.37465        1.10622        1.18967      -0.000628437   0.00367706
  7732.68        1.09474        1.29146        1.11216        1.10888      -0.00771802  -0.00726196
  7734.21        1.08122        1.22183        1.10104        1.04165      -0.000815193  -0.00220056
  7735.77        1.0622        1.16392        1.08446       0.986181      -0.0163532   0.0067018
  7737.31        1.05958        1.11853        1.08424       0.943192      -0.00492772  -0.0121379
  7738.84        1.02828        1.0834        1.05534       0.910457      -0.0190135   0.00652521
  7740.39        1.0123        1.05728        1.04177       0.886751      -0.0132635  -0.0071063
  7741.95       0.978932        1.03906        1.01085       0.870977      -0.0246086  -0.000161197
  7746.97       0.869242        1.02246       0.909005       0.862222      -0.0161413   0.00175882
  7751.94       0.804347        1.03872       0.851875       0.886251      -0.011262   0.00100017
  7756.95       0.763909        1.05678       0.819278       0.912148      -0.000731034   0.00275755
  7761.95       0.792166        1.07135       0.85535       0.934534       0.00769601   0.00112466
  7766.97       0.848969        1.08274       0.92       0.953768       0.0111318  -2.87005e-05
  7771.99       0.905097        1.09108       0.983981       0.969967       0.0110759  -0.0011456
  7777       0.932245        1.09657        1.01896       0.983288       0.00233684  -0.000749185
  7784.15       0.938453        1.09989        1.03635       0.997791      -0.0042412  -0.000562373
  7791.28       0.91604        1.09844        1.0251        1.00749       0.000802184   0.000247515
  7798.44       0.906255        1.09278        1.0265        1.01303      -0.00335918  -0.000312843
  7805.61       0.880375        1.08348        1.01184        1.01495      -0.00327954   0.000122866
  7812.81       0.860789        1.0711        1.00351        1.01381      -7.04974e-05   4.5604e-05
  7819.99       0.843581        1.05627       0.997533        1.01022      -0.00376232  -3.11789e-05
  7827.22       0.82464        1.03947       0.989896        1.00472      -0.0044371   5.64601e-05
  7834.44       0.808672        1.02141       0.98521       0.997952       0.000933057  -4.27585e-05
  7841.69       0.790376        1.00259       0.978254       0.990466      -0.00174268   0.000749435
  7845.32       0.800968       0.993097       0.994522       0.986651       0.00291793   0.00128392