Folder: Xray-Project/Dynamic XAS/Dynamic XAS Energy analyzed data/ESweep_0_5 Hz/Same Eo/Normalized Spectra (part 8)

File: Ir0_5Hz_ReaddMean_VPhsCorrect_15_232_mV_.csv.nor
# XDI/1.0 Athena/0.9.26
# Element.edge:                  K
# Element.symbol:                Co
# Column.1:                      energy eV
# Column.2:                      norm
# Column.3:                      nbkg
# Column.4:                      flat
# Column.5:                      fbkg
# Column.6:                      nder
# Column.7:                      nsec
# Athena.e0:                     7721.54
# Athena.eshift:                 0
# Athena.rbkg:                   1.0
# Athena.importance:             1
# Athena.standard:               None
# Athena.bkg_kweight:            3
# Athena.edge_step:              1.19607
# Athena.fixed_step:             no
# Athena.pre_edge_range:         -82.964 -19.904
# Athena.pre_edge_line:          0.223493 + 0.000185505 * E
# Athena.normalization_range:    45 125.256
# Athena.post_edge_polynomial:   15.7797 - 0.00167424 * E + 0 * E^2 + 0 * E^3
# Athena.spline_range_energy:    0.000 125.180
# Athena.clamps:                 0 24
# Athena.spline_range_k:         0.000 5.732
# Athena.kweight:                2
# Athena.window:                 hanning
# Athena.phase_correction:       no
# Athena.k_range:                .4 5.35
# Athena.dk:                     .5
# Athena.r_range:                .4 5.1
# Athena.dr:                     .5
# Athena.window:                 hanning
# Athena.plot_multiplier:        1
# Athena.y_offset:               0.2
# ///
#------------------------
#   e         norm        nbkg        flat        fbkg        nder        nsec
  7600.07      -0.213913      -0.0139131  -0.213913      -0.213913       0.0120236  -0.000495989
  7624.56      -0.0479015   0.152098      -0.0479015  -0.0479015   0.00299148  -0.000206239
  7649.7      -0.0151775   0.184823      -0.0151775  -0.0151775  -0.00030048   9.20682e-05
  7674.73       0.0750233   0.275023       0.0750233   0.0750233   0.000178973  -0.00027355
  7700.01      -0.00767604   0.192324      -0.00767604  -0.00767604   0.000345427   0.000751347
  7700.72      -0.00304016   0.19696      -0.00304016  -0.00304016   0.00464971  -0.0167322
  7701.43      -0.00653614   0.193464      -0.00653614  -0.00653614   0.0014302   0.0152974
  7702.15      -0.00204305   0.197957      -0.00204305  -0.00204305  -0.00490634  -0.0183441
  7702.88      -0.00705384   0.192946      -0.00705384  -0.00705384  -0.00119438   0.0103582
  7703.6      -0.00661445   0.193386      -0.00661445  -0.00661445   0.00237761   0.0095679
  7704.32      -0.00118511   0.198815      -0.00118511  -0.00118511   0.00486413  -0.0145562
  7705.02      -0.00332507   0.196675      -0.00332507  -0.00332507  -0.00523777   0.00560008
  7705.75      -0.00273648   0.197264      -0.00273648  -0.00273648   0.0177051   0.0324116
  7706.47       0.0149527   0.214953       0.0149527   0.0149527   0.0281032   0.0103273
  7707.2       0.0380987   0.238099       0.0380987   0.0380987   0.0255318  -0.0195462
  7707.91       0.0508502   0.25085       0.0508502   0.0508502   0.00653884  -0.019361
  7708.65       0.0535819   0.253582       0.0535819   0.0535819  -0.00083409  -0.0147973
  7709.29       0.0492989   0.249299       0.0492989   0.0492989   0.00354724   0.0221773
  7709.9       0.0535691   0.253569       0.0535691   0.0535691  -0.00611659  -0.035832
  7710.51       0.044361   0.244361       0.044361   0.044361  -0.0100645   0.0204119
  7711.11       0.0428294   0.242829       0.0428294   0.0428294   0.00771836   0.0100291
  7711.73       0.044908   0.244908       0.044908   0.044908  -0.00601689  -0.0127884
  7712.33       0.04219   0.24219       0.04219   0.04219  -0.0115084   0.0162135
  7712.95       0.0456005   0.2456       0.0456005   0.0456005   0.0165888   0.0262211
  7713.54       0.057884   0.257884       0.057884   0.057884   0.0414516   0.0645089
  7714.16       0.0958023   0.295802       0.0958023   0.0958023   0.0728697   0.0111405
  7714.78       0.137529       0.337529       0.137529       0.137529       0.0514237  -0.0562703
  7715.39       0.15798       0.35798       0.15798       0.15798       0.0417425   0.0225854
  7715.97       0.185507       0.385507       0.185507       0.185507       0.0301625  -0.0724723
  7716.26       0.189223       0.389223       0.189223       0.189223       0.0326867   0.192621
  7716.5       0.203236       0.403236       0.203236       0.203236       0.052932   0.0158761
  7716.73       0.217616       0.417616       0.217616       0.217616       0.0497842  -0.0995088
  7716.99       0.227018       0.427018       0.227018       0.227018       0.0386989   0.00317316
  7717.23       0.236233       0.436233       0.236233       0.236233       0.0540718   0.209168
  7717.46       0.256773       0.456773       0.256773       0.256773       0.0526339  -0.214466
  7717.71       0.266147       0.466147       0.266147       0.266147       0.0905186   0.176172
  7717.96       0.286606       0.486606       0.286606       0.286606       0.0655749   0.120079
  7718.21       0.313592       0.513592       0.313592       0.313592       0.110519      -0.194226
  7718.44       0.327777       0.527777       0.327777       0.327777       0.083071   0.185929
  7718.69       0.354468       0.554468       0.354468       0.354468       0.0759092  -0.0768015
  7718.94       0.375876       0.575876       0.375876       0.375876       0.143246       0.306937
  7719.17       0.414189       0.614189       0.414189       0.414189       0.125465      -0.302312
  7719.42       0.437291       0.637291       0.437291       0.437291       0.144714       0.233146
  7719.67       0.473379       0.67338       0.47338       0.47338       0.122774       0.0832591
  7719.9       0.512804       0.712804       0.512804       0.512804       0.19539       0.0361481
  7720.15       0.557498       0.757498       0.557498       0.557498       0.216297       0.0929147
  7720.4       0.605687       0.805687       0.605687       0.605687       0.129351      -0.149461
  7720.65       0.645798       0.845798       0.645798       0.645798       0.19304       0.319564
  7720.88       0.701947       0.901947       0.701947       0.701947       0.220202      -0.197095
  7721.13       0.750791       0.950791       0.750791       0.750791       0.201878       0.109973
  7721.38       0.8044        1.0044       0.8044       0.8044       0.236661       0.189336
  7721.61       0.866381        2.27075       0.866493        2.07086       0.244908      -0.172486
  7721.86       0.922363        2.23769       0.922864        2.03819       0.269736      -0.0356102
  7722.1       0.974571        2.20624       0.975448        2.00711       0.159304       0.00784472
  7722.36        1.02987        2.1738        1.03114        1.97507       0.228792      -0.124316
  7722.59        1.07364        2.14431        1.07528        1.94595       0.164654      -0.248985
  7722.85        1.10533        2.11312        1.10736        1.91515       0.131142       0.194936
  7723.05        1.14036        2.08827        1.14271        1.89062       0.176792      -0.121175
  7723.41        1.19005        2.0461        1.19296        1.84901       0.12352      -0.0267867
  7723.8        1.24109        2.0006        1.2446        1.80411       0.106066      -0.139304
  7724.2        1.27063        1.95599        1.27476        1.76012       0.034519  -0.151872
  7724.59        1.27618        1.91315        1.28092        1.7179       0.013789  -0.0476694
  7725.01        1.27425        1.86933        1.27964        1.67472      -0.0346435  -0.0423682
  7726.51        1.20796        1.72309        1.21568        1.53081      -0.0481928   0.000772545
  7728.07        1.14092        1.58948        1.15106        1.39963      -0.0403862   0.00955139
  7729.59        1.09754        1.47576        1.11006        1.28828      -0.00825844   0.0167088
  7731.15        1.09294        1.37628        1.10788        1.19122      -0.00133935   0.00390279
  7732.68        1.09771        1.2931        1.11503        1.11042      -0.00779436  -0.00821626
  7734.21        1.08319        1.22346        1.1029        1.04316      -0.00138434  -0.00249133
  7735.77        1.06245        1.16551        1.08458       0.987648      -0.015799   0.00754063
  7737.31        1.06015        1.12008        1.08467       0.944594      -0.00530415  -0.0122615
  7738.84        1.02888        1.08487        1.05578       0.911778      -0.0179706   0.00677907
  7740.39        1.01352        1.05867        1.04283       0.887979      -0.0147248  -0.00716653
  7741.95       0.980652        1.04036        1.01239       0.8721      -0.0235908  -0.000268196
  7746.97       0.870782        1.02344       0.910321       0.862975      -0.0166151   0.00177326
  7751.94       0.806068        1.03939       0.853328       0.886655      -0.011189   0.00100384
  7756.95       0.765904        1.05723       0.82096       0.91229      -0.000898666   0.00264217
  7761.95       0.791565        1.07168       0.854394       0.934505       0.00756545   0.00120967
  7766.97       0.847911        1.08301       0.918542       0.953644       0.0112054   7.50636e-05
  7771.99       0.906184        1.09138       0.984624       0.969815       0.0113969  -0.001281
  7777       0.932062        1.09693        1.01829       0.98316       0.00201957  -0.000696838
  7784.15       0.938733        1.10041        1.03608       0.997762      -0.00401049  -0.00055519
  7791.28       0.917146        1.09916        1.02559        1.0076       0.000826799   0.0002237
  7798.44       0.906968        1.09372        1.02653        1.01329      -0.00336771  -0.000271798
  7805.61       0.882801        1.0846        1.01353        1.01533      -0.00345191   0.000110684
  7812.81       0.864302        1.07233        1.00622        1.01425       0.000133895  -4.14613e-05
  7819.99       0.843691        1.05751       0.996775        1.0106      -0.00382752   1.97056e-05
  7827.22       0.823982        1.04057       0.988307        1.0049      -0.00438219   9.45019e-05
  7834.44       0.809227        1.0222       0.98477       0.997747       0.000785538  -5.21797e-05
  7841.69       0.791654        1.00283       0.978473       0.989654      -0.00169353   0.000710245
  7845.32       0.801576       0.992976       0.994039       0.98544       0.00273322   0.00121949

File: Ir0_5Hz_ReaddMean_VPhsCorrect_16_219_mV_.csv.nor
# XDI/1.0 Athena/0.9.26
# Element.edge:                  K
# Element.symbol:                Co
# Column.1:                      energy eV
# Column.2:                      norm
# Column.3:                      nbkg
# Column.4:                      flat
# Column.5:                      fbkg
# Column.6:                      nder
# Column.7:                      nsec
# Athena.e0:                     7721.54
# Athena.eshift:                 0
# Athena.rbkg:                   1.0
# Athena.importance:             1
# Athena.standard:               None
# Athena.bkg_kweight:            3
# Athena.edge_step:              1.19581
# Athena.fixed_step:             no
# Athena.pre_edge_range:         -82.964 -19.904
# Athena.pre_edge_line:          0.280652 + 0.000178068 * E
# Athena.normalization_range:    45 125.256
# Athena.post_edge_polynomial:   15.7275 - 0.00166755 * E + 0 * E^2 + 0 * E^3
# Athena.spline_range_energy:    0.000 125.180
# Athena.clamps:                 0 24
# Athena.spline_range_k:         0.000 5.732
# Athena.kweight:                2
# Athena.window:                 hanning
# Athena.phase_correction:       no
# Athena.k_range:                .4 5.35
# Athena.dk:                     .5
# Athena.r_range:                .4 5.1
# Athena.dr:                     .5
# Athena.window:                 hanning
# Athena.plot_multiplier:        1
# Athena.y_offset:               0.2
# ///
#------------------------
#   e         norm        nbkg        flat        fbkg        nder        nsec
  7600.07      -0.214886      -0.0148859  -0.214886      -0.214886       0.0121021  -0.000502486
  7624.56      -0.0486356   0.151364      -0.0486356  -0.0486356   0.00300049  -0.000205683
  7649.7      -0.0152951   0.184705      -0.0152951  -0.0152951  -0.000311016   9.18808e-05
  7674.73       0.0754022   0.275402       0.0754022   0.0754022   0.000174508  -0.000275839
  7700.01      -0.00824998   0.19175      -0.00824998  -0.00824998   0.000391805   0.000890495
  7700.72      -0.00235268   0.197647      -0.00235268  -0.00235268   0.00444681  -0.0206663
  7701.43      -0.00649776   0.193502      -0.00649776  -0.00649776   0.00037947   0.0165211
  7702.15      -0.0020178   0.197982      -0.0020178  -0.0020178  -0.00343128  -0.017584
  7702.88      -0.00664722   0.193353      -0.00664722  -0.00664722  -0.00201213   0.00765376
  7703.6      -0.00724561   0.192754      -0.00724561  -0.00724561   0.00301898   0.0126321
  7704.32      -0.00126253   0.198737      -0.00126253  -0.00126253   0.00422026  -0.0155168
  7705.02      -0.00335635   0.196644      -0.00335635  -0.00335635  -0.00472919   0.00655681
  7705.75      -0.00223534   0.197765      -0.00223534  -0.00223534   0.016411   0.0304215
  7706.47       0.0149308   0.214931       0.0149308   0.0149308   0.028754   0.011695
  7707.2       0.0382646   0.238265       0.0382646   0.0382646   0.0252771  -0.0196234
  7707.91       0.0511621   0.251162       0.0511621   0.0511621   0.0076242  -0.0195935
  7708.65       0.0539193   0.253919       0.0539193   0.0539193  -0.00106366  -0.0149499
  7709.29       0.0495897   0.24959       0.0495897   0.0495897   0.00297676   0.022321
  7709.9       0.0538698   0.25387       0.0538698   0.0538698  -0.0054993  -0.0360644
  7710.51       0.0445842   0.244584       0.0445842   0.0445842  -0.0111336   0.0213865
  7711.11       0.0433316   0.243332       0.0433316   0.0433316   0.00839099   0.00917722
  7711.73       0.0453882   0.245388       0.0453882   0.0453882  -0.00677914  -0.0130664
  7712.33       0.0425449   0.242545       0.0425449   0.0425449  -0.00996336   0.0164564
  7712.95       0.0459203   0.24592       0.0459203   0.0459203   0.0166865   0.0252459
  7713.54       0.0578335   0.257834       0.0578335   0.0578335   0.0412348   0.0646691
  7714.16       0.0954191   0.295419       0.0954191   0.0954191   0.0727749   0.0118957
  7714.78       0.137104       0.337104       0.137104       0.137104       0.050574  -0.0545633
  7715.39       0.158144       0.358144       0.158144       0.158144       0.0428135   0.0221717
  7715.97       0.186095       0.386095       0.186095       0.186095       0.0272398  -0.0770869
  7716.26       0.189406       0.389406       0.189406       0.189406       0.0369217   0.19272
  7716.5       0.203076       0.403076       0.203076       0.203076       0.0563239   0.0297503
  7716.73       0.217946       0.417946       0.217946       0.217946       0.0441119  -0.121647
  7716.99       0.22649       0.42649       0.22649       0.22649       0.0388498   0.00824657
  7717.23       0.235171       0.435171       0.235171       0.235171       0.0553482   0.230806
  7717.46       0.256446       0.456446       0.256446       0.256446       0.0555051  -0.223554
  7717.71       0.266069       0.466069       0.266069       0.266069       0.0844833   0.171773
  7717.96       0.286506       0.486506       0.286506       0.286506       0.0698225   0.106709
  7718.21       0.312706       0.512706       0.312706       0.312706       0.106227      -0.168708
  7718.44       0.327664       0.527664       0.327664       0.327664       0.0922464   0.173816
  7718.69       0.354436       0.554436       0.354436       0.354436       0.0675503  -0.0796015
  7718.94       0.375764       0.575764       0.375764       0.375764       0.147376       0.300149
  7719.17       0.413605       0.613605       0.413605       0.413605       0.123239      -0.281974
  7719.42       0.437441       0.637441       0.437441       0.437441       0.143501       0.216027
  7719.67       0.473251       0.673251       0.473251       0.473251       0.124598       0.072996
  7719.9       0.5118       0.7118       0.5118       0.5118       0.194486       0.055583
  7720.15       0.55676       0.75676       0.55676       0.55676       0.212114       0.0832871
  7720.4       0.60466       0.80466       0.60466       0.60466       0.137563      -0.135513
  7720.65       0.64534       0.84534       0.64534       0.64534       0.191392       0.295061
  7720.88       0.700593       0.900593       0.700593       0.700593       0.21643      -0.143712
  7721.13       0.75181       0.95181       0.75181       0.75181       0.199256       0.0510784
  7721.38       0.804342        1.00434       0.804342       0.804342       0.244422       0.210374
  7721.61       0.866548        2.27355       0.866659        2.07366       0.241035      -0.185216
  7721.86       0.921995        2.2404       0.922492        2.0409       0.277075      -0.0405362
  7722.1       0.973411        2.20887       0.974281        2.00974       0.149303       0.0481915
  7722.36        1.03046        2.17636        1.03172        1.97762       0.225224      -0.170341
  7722.59        1.07312        2.1468        1.07474        1.94842       0.177007      -0.214573
  7722.85        1.10574        2.11553        1.10775        1.91754       0.122898       0.174708
  7723.05        1.14055        2.09061        1.14288        1.89294       0.175627      -0.111458
  7723.41        1.19075        2.04835        1.19363        1.85123       0.128198      -0.0252854
  7723.8        1.24257        2.00273        1.24606        1.80622       0.106902      -0.14491
  7724.2        1.27203        1.95801        1.27613        1.76211       0.0333009  -0.154836
  7724.59        1.27703        1.91507        1.28174        1.71978       0.0131322  -0.0509724
  7725.01        1.27398        1.87114        1.27933        1.6765      -0.0338246  -0.0391197
  7726.51        1.20821        1.72455        1.21588        1.53222      -0.0483517   0.00111107
  7728.07        1.14254        1.59063        1.15261        1.4007      -0.0406162   0.0082867
  7729.59        1.09756        1.47664        1.10999        1.28907      -0.00830208   0.0173602
  7731.15        1.09287        1.37694        1.10769        1.19176      -0.00144537   0.00398923
  7732.68        1.09776        1.29358        1.11495        1.11077      -0.0081435  -0.00792967
  7734.21        1.08402        1.22379        1.10358        1.04335      -0.000510546  -0.00289486
  7735.77        1.06311        1.16574        1.08508       0.987706      -0.0160049   0.00756797
  7737.31        1.06072        1.12022        1.08505       0.944554      -0.00548369  -0.0119314
  7738.84        1.03013        1.08496        1.05684       0.911668      -0.0173526   0.00637345
  7740.39        1.0145        1.05873        1.04359       0.887821      -0.015079  -0.00749512
  7741.95       0.980554        1.04041        1.01206       0.871915      -0.0239108  -6.33459e-05
  7746.97       0.870621        1.02356       0.909868       0.862808      -0.0164936   0.00178238
  7751.94       0.806071        1.03967       0.852983       0.886578      -0.0111651   0.000979793
  7756.95       0.765471        1.05764       0.820121       0.912288      -0.000656096   0.00269697
  7761.95       0.79206        1.07219       0.854424       0.934551       0.00721855   0.0011617
  7766.97       0.848124        1.08361       0.918233       0.953717       0.0113372   8.0354e-05
  7771.99       0.906249        1.09203       0.984109       0.969895       0.0112894  -0.00121196
  7777       0.933717        1.09764        1.01931       0.983233       0.00216484  -0.000756496
  7784.15       0.940066        1.10118        1.0367       0.997807      -0.00399441  -0.000584114
  7791.28       0.916686        1.09997        1.02433        1.00761       0.000833079   0.000280161
  7798.44       0.907607        1.09458        1.02629        1.01326      -0.00346565  -0.000291697
  7805.61       0.88352        1.08551        1.01328        1.01527      -0.00330634   0.000104243
  7812.81       0.864768        1.07332        1.00563        1.01419       0.000211199  -1.99175e-05
  7819.99       0.845015        1.05862       0.996968        1.01057      -0.0039294   4.93685e-06
  7827.22       0.825398        1.04184       0.988509        1.00495      -0.0043728   8.45459e-05
  7834.44       0.810218        1.0237       0.984464       0.997943       0.000823266  -5.0647e-05
  7841.69       0.792298        1.00462       0.977737       0.990061      -0.00172222   0.000747428
  7845.32       0.803025       0.994942       0.994067       0.985984       0.00295528   0.00128857