Folder: Xray-Project/Dynamic XAS/Dynamic XAS Energy analyzed data/ESweep_0_5 Hz/Same Eo/Normalized Spectra (part 5)

File: Ir0_5Hz_ReaddMean_VPhsCorrect_9_232_mV_.csv.nor
# XDI/1.0 Athena/0.9.26
# Element.edge:                  K
# Element.symbol:                Co
# Column.1:                      energy eV
# Column.2:                      norm
# Column.3:                      nbkg
# Column.4:                      flat
# Column.5:                      fbkg
# Column.6:                      nder
# Column.7:                      nsec
# Athena.e0:                     7721.54
# Athena.eshift:                 0
# Athena.rbkg:                   1.0
# Athena.importance:             1
# Athena.standard:               None
# Athena.bkg_kweight:            3
# Athena.edge_step:              1.19447
# Athena.fixed_step:             no
# Athena.pre_edge_range:         -82.964 -19.904
# Athena.pre_edge_line:          0.238154 + 0.00018365 * E
# Athena.normalization_range:    45 125.256
# Athena.post_edge_polynomial:   15.6287 - 0.00165485 * E + 0 * E^2 + 0 * E^3
# Athena.spline_range_energy:    0.000 125.180
# Athena.clamps:                 0 24
# Athena.spline_range_k:         0.000 5.732
# Athena.kweight:                2
# Athena.window:                 hanning
# Athena.phase_correction:       no
# Athena.k_range:                .4 5.35
# Athena.dk:                     .5
# Athena.r_range:                .4 5.1
# Athena.dr:                     .5
# Athena.window:                 hanning
# Athena.plot_multiplier:        1
# Athena.y_offset:               0.2
# ///
#------------------------
#   e         norm        nbkg        flat        fbkg        nder        nsec
  7600.07      -0.215189      -0.0151887  -0.215189      -0.215189       0.0121402  -0.000505961
  7624.56      -0.0489033   0.151097      -0.0489032  -0.0489032   0.00299138  -0.00020412
  7649.7      -0.0144826   0.185517      -0.0144826  -0.0144826  -0.000366772   9.0967e-05
  7674.73       0.0767182   0.276718       0.0767182   0.0767182   0.000216012  -0.000279851
  7700.01      -0.00897413   0.191026      -0.00897413  -0.00897413   0.000451037   0.00100838
  7700.72      -0.00204273   0.197957      -0.00204273  -0.00204273   0.00316602  -0.0230878
  7701.43      -0.00632748   0.193673      -0.00632748  -0.00632748   0.00201407   0.016792
  7702.15      -0.00184636   0.198154      -0.00184636  -0.00184636  -0.00412553  -0.0174468
  7702.88      -0.00640338   0.193597      -0.00640338  -0.00640338  -0.00328034   0.00792293
  7703.6      -0.00678858   0.193211      -0.00678858  -0.00678858   0.00320496   0.012497
  7704.32      -0.000661553   0.199338      -0.000661553  -0.000661553   0.00563301  -0.0158279
  7705.02      -0.00277436   0.197226      -0.00277436  -0.00277436  -0.00579292   0.00409473
  7705.75      -0.00291891   0.197081      -0.00291891  -0.00291891   0.017602   0.0347205
  7706.47       0.0152628   0.215263       0.0152628   0.0152628   0.0271112   0.00983749
  7707.2       0.0386481   0.238648       0.0386481   0.0386481   0.0282683  -0.0195885
  7707.91       0.0516147   0.251615       0.0516147   0.0516147   0.00470697  -0.0210925
  7708.65       0.0536502   0.25365       0.0536502   0.0536502  -0.00127342  -0.0138914
  7709.29       0.0491632   0.249163       0.0491632   0.0491632   0.00360939   0.0229976
  7709.9       0.0535481   0.253548       0.0535481   0.0535481  -0.00621671  -0.0343745
  7710.51       0.045002   0.245002       0.045002   0.045002  -0.0074834   0.0186025
  7711.11       0.0434562   0.243456       0.0434562   0.0434562   0.00780592   0.0134186
  7711.73       0.0467601   0.24676       0.0467601   0.0467601  -0.00436836  -0.0138833
  7712.33       0.0448415   0.244842       0.0448415   0.0448415  -0.0132715   0.0127009
  7712.95       0.0477279   0.247728       0.0477279   0.0477279   0.0203915   0.0348137
  7713.54       0.0624877   0.262488       0.0624877   0.0624877   0.0430376   0.0577549
  7714.16       0.100443       0.300443       0.100443       0.100443       0.0748374   0.00444062
  7714.78       0.139659       0.339659       0.139659       0.139659       0.0473674  -0.0400661
  7715.39       0.163619       0.363619       0.163619       0.163619       0.0464053   0.0014583
  7715.97       0.18718       0.38718       0.18718       0.18718       0.0274686  -0.0242472
  7716.26       0.195354       0.395354       0.195354       0.195354       0.0246472   0.0673592
  7716.5       0.206182       0.406182       0.206182       0.206182       0.0694471   0.0533538
  7716.73       0.219725       0.419725       0.219725       0.219725       0.0550687   0.0100297
  7716.99       0.235115       0.435115       0.235115       0.235115       0.039593  -0.0989761
  7717.23       0.244227       0.444227       0.244227       0.244227       0.048275   0.160053
  7717.46       0.26187       0.46187       0.26187       0.26187       0.0649033  -0.189391
  7717.71       0.269611       0.469611       0.269611       0.269611       0.0900301   0.335465
  7717.96       0.298381       0.498381       0.298381       0.298381       0.0702627  -0.107896
  7718.21       0.320532       0.520532       0.320532       0.320532       0.110528      -0.023833
  7718.44       0.340271       0.540271       0.340271       0.340271       0.056249  -0.0252056
  7718.69       0.359881       0.559881       0.359881       0.359881       0.109187       0.170809
  7718.94       0.38842       0.58842       0.38842       0.38842       0.116565       0.128576
  7719.17       0.423155       0.623155       0.423155       0.423155       0.127972      -0.1808
  7719.42       0.449812       0.649812       0.449812       0.449812       0.177878       0.183168
  7719.67       0.486469       0.686469       0.486469       0.486469       0.122075       0.102568
  7719.9       0.527585       0.727585       0.527585       0.527585       0.169358      -0.0144828
  7720.15       0.570949       0.770949       0.570949       0.570949       0.223041       0.139886
  7720.4       0.620519       0.820519       0.620519       0.620519       0.150577      -0.176374
  7720.65       0.660377       0.860377       0.660377       0.660377       0.173888       0.280298
  7720.88       0.714002       0.914002       0.714002       0.714002       0.24007      -0.159835
  7721.13       0.762432       0.962432       0.762432       0.762432       0.194957      -0.000886838
  7721.38       0.809286        1.00929       0.809286       0.809286       0.211902       0.300475
  7721.61       0.871447        2.2662       0.871558        2.06631       0.261436      -0.110352
  7721.86       0.931411        2.23324       0.931907        2.03374       0.25611      -0.135512
  7722.1       0.981914        2.20189       0.982782        2.00276       0.16497      -0.0302944
  7722.36        1.03298        2.16955        1.03424        1.97081       0.220924      -0.0320127
  7722.59        1.07833        2.14016        1.07995        1.94178       0.152467      -0.330935
  7722.85        1.10663        2.10906        1.10864        1.91107       0.122807       0.271465
  7723.05        1.14259        2.08428        1.14492        1.88661       0.17106      -0.186537
  7723.41        1.18797        2.04225        1.19084        1.84513       0.120689       0.00566174
  7723.8        1.23921        1.99689        1.24269        1.80037       0.104274      -0.159789
  7724.2        1.26572        1.95243        1.26981        1.75652       0.0229137  -0.143509
  7724.59        1.26957        1.90973        1.27427        1.71442       0.0140625  -0.0397239
  7725.01        1.26714        1.86605        1.27248        1.67139      -0.0323926  -0.0390171
  7726.51        1.20377        1.7203        1.21141        1.52794      -0.0472164   0.00183263
  7728.07        1.14237        1.58716        1.15241        1.39721      -0.038746   0.00595891
  7729.59        1.09613        1.47386        1.10853        1.28626      -0.00814379   0.0184604
  7731.15        1.09277        1.37477        1.10756        1.18955      -0.0015752   0.00293406
  7732.68        1.09645        1.29194        1.1136        1.10908      -0.00699403  -0.00737147
  7734.21        1.08282        1.22261        1.10233        1.04211      -0.00226893  -0.00286052
  7735.77        1.0621        1.16495        1.08401       0.986863      -0.0158252   0.00840066
  7737.31        1.06189        1.11977        1.08616       0.944039      -0.00491968  -0.0137335
  7738.84        1.02923        1.08479        1.05586       0.911426      -0.0173022   0.00740394
  7740.39        1.01396        1.05879        1.04297       0.887804      -0.0138935  -0.00833085
  7741.95       0.978358        1.04066        1.00978       0.872082      -0.0248748   0.000422499
  7746.97       0.871142        1.02418       0.910281       0.863316      -0.0161096   0.00167375
  7751.94       0.806582        1.04041       0.853365       0.887189      -0.0108659   0.00101459
  7756.95       0.766845        1.05841       0.821345       0.912912      -0.00116761   0.00263856
  7761.95       0.792842        1.07294       0.855035       0.93513       0.00787857   0.00120979
  7766.97       0.849527        1.08429       0.919444       0.954204       0.0110765   7.16331e-05
  7771.99       0.908055        1.09261       0.985702       0.970253       0.0108758  -0.00133116
  7777       0.932923        1.09808        1.01828       0.983438       0.00240173  -0.000623882
  7784.15       0.941322        1.10141        1.03769       0.997773      -0.00401871  -0.00064772
  7791.28       0.916752        1.1        1.0241        1.00734       0.000477268   0.000284687
  7798.44       0.90671        1.09444        1.02507        1.0128      -0.00298711  -0.000263449
  7805.61       0.883108        1.08528        1.01251        1.01469      -0.00362886   9.55351e-05
  7812.81       0.864391        1.0731        1.00487        1.01358       7.05047e-05  -1.36035e-05
  7819.99       0.844999        1.05855       0.996538        1.01009      -0.00349929   2.07267e-05
  7827.22       0.826571        1.0421       0.989236        1.00476      -0.00439507   9.54238e-05
  7834.44       0.813142        1.02448       0.986912       0.99825       0.00083355  -0.000140521
  7841.69       0.79226        1.00618       0.977192       0.991113      -0.0017527   0.000837465
  7845.32       0.803877       0.996991       0.994397       0.987511       0.00320048   0.00136451

File: Ir0_5Hz_ReaddMean_VPhsCorrect_10_242_mV_.csv.nor
# XDI/1.0 Athena/0.9.26
# Element.edge:                  K
# Element.symbol:                Co
# Column.1:                      energy eV
# Column.2:                      norm
# Column.3:                      nbkg
# Column.4:                      flat
# Column.5:                      fbkg
# Column.6:                      nder
# Column.7:                      nsec
# Athena.e0:                     7721.54
# Athena.eshift:                 0
# Athena.rbkg:                   1.0
# Athena.importance:             1
# Athena.standard:               None
# Athena.bkg_kweight:            3
# Athena.edge_step:              1.19539
# Athena.fixed_step:             no
# Athena.pre_edge_range:         -82.964 -19.904
# Athena.pre_edge_line:          0.238824 + 0.00018355 * E
# Athena.normalization_range:    45 125.256
# Athena.post_edge_polynomial:   15.73 - 0.00166787 * E + 0 * E^2 + 0 * E^3
# Athena.spline_range_energy:    0.000 125.180
# Athena.clamps:                 0 24
# Athena.spline_range_k:         0.000 5.732
# Athena.kweight:                2
# Athena.window:                 hanning
# Athena.phase_correction:       no
# Athena.k_range:                .4 5.35
# Athena.dk:                     .5
# Athena.r_range:                .4 5.1
# Athena.dr:                     .5
# Athena.window:                 hanning
# Athena.plot_multiplier:        1
# Athena.y_offset:               0.2
# ///
#------------------------
#   e         norm        nbkg        flat        fbkg        nder        nsec
  7600.07      -0.214386      -0.0143855  -0.214385      -0.214385       0.0121008  -0.000504628
  7624.56      -0.0487219   0.151278      -0.0487219  -0.0487219   0.00296519  -0.000203637
  7649.7      -0.0146173   0.185383      -0.0146173  -0.0146173  -0.000326099   9.21543e-05
  7674.73       0.0770119   0.277012       0.0770119   0.0770119   0.000165765  -0.000281135
  7700.01      -0.0090639   0.190936      -0.0090639  -0.0090639   0.000458361   0.000972221
  7700.72      -0.00247802   0.197522      -0.00247801  -0.00247801   0.004569  -0.0212361
  7701.43      -0.00620695   0.193793      -0.00620695  -0.00620695   0.00183284   0.0161236
  7702.15      -0.00151569   0.198484      -0.00151569  -0.00151569  -0.0046249  -0.0176094
  7702.88      -0.00594609   0.194054      -0.00594609  -0.00594609  -0.00297473   0.00592436
  7703.6      -0.00725277   0.192747      -0.00725277  -0.00725277   0.00382388   0.0149987
  7704.32      -0.000748242   0.199252      -0.000748242  -0.000748242   0.00394678  -0.0159122
  7705.02      -0.00254168   0.197458      -0.00254168  -0.00254168  -0.00498835   0.00182281
  7705.75      -0.00350066   0.196499      -0.00350066  -0.00350066   0.0169233   0.0366719
  7706.47       0.0149043   0.214904       0.0149043   0.0149043   0.0283793   0.0100478
  7707.2       0.0386235   0.238623       0.0386235   0.0386235   0.0267126  -0.02123
  7707.91       0.0510644   0.251064       0.0510644   0.0510644   0.00512051  -0.0184999
  7708.65       0.0539355   0.253935       0.0539355   0.0539355  -0.0010569  -0.0165337
  7709.29       0.0489902   0.24899       0.0489902   0.0489902   0.00305542   0.0241924
  7709.9       0.0533885   0.253388       0.0533885   0.0533885  -0.00484126  -0.0346048
  7710.51       0.0447692   0.244769       0.0447692   0.0447692  -0.00845867   0.0166917
  7711.11       0.0424576   0.242458       0.0424576   0.0424576   0.00731952   0.0167607
  7711.73       0.046189   0.246189       0.046189   0.046189  -0.00489725  -0.012409
  7712.33       0.0452411   0.245241       0.045241   0.045241  -0.0109712   0.00900196
  7712.95       0.0477069   0.247707       0.0477069   0.0477069   0.0188998   0.0324403
  7713.54       0.0612492   0.261249       0.0612492   0.0612492   0.0426084   0.0614779
  7714.16       0.099341   0.299341       0.099341   0.099341   0.0738564   0.00553917
  7714.78       0.13911       0.33911       0.13911       0.13911       0.0476388  -0.0421055
  7715.39       0.162863       0.362863       0.162863       0.162863       0.0465846   0.00197727
  7715.97       0.186405       0.386405       0.186405       0.186405       0.0273563  -0.0331956
  7716.26       0.193387       0.393387       0.193387       0.193387       0.0244793   0.107763
  7716.5       0.205455       0.405455       0.205455       0.205455       0.0686722   0.0310105
  7716.73       0.218864       0.418864       0.218864       0.218864       0.0514531  -0.0110835
  7716.99       0.232779       0.432779       0.232779       0.232779       0.0398179  -0.0481736
  7717.23       0.243385       0.443385       0.243385       0.243385       0.0527154   0.137096
  7717.46       0.261117       0.461117       0.261117       0.261117       0.0621182  -0.201353
  7717.71       0.268235       0.468235       0.268235       0.268235       0.0892615   0.324532
  7717.96       0.295694       0.495694       0.295694       0.295694       0.0683361  -0.0531878
  7718.21       0.319678       0.519678       0.319678       0.319678       0.112678      -0.0856891
  7718.44       0.337475       0.537475       0.337475       0.337475       0.0561193   0.0409748
  7718.69       0.359089       0.559089       0.359089       0.359089       0.107677       0.0938144
  7718.94       0.38522       0.58522       0.38522       0.38522       0.118711       0.191076
  7719.17       0.421295       0.621295       0.421295       0.421295       0.127365      -0.229628
  7719.42       0.446418       0.646418       0.446418       0.446418       0.172441       0.229995
  7719.67       0.484296       0.684296       0.484296       0.484296       0.120257       0.07532
  7719.9       0.524958       0.724958       0.524958       0.524958       0.175677      -0.0190556
  7720.15       0.567549       0.767549       0.567549       0.567549       0.224693       0.154818
  7720.4       0.617222       0.817222       0.617222       0.617222       0.144499      -0.180938
  7720.65       0.656903       0.856903       0.656903       0.656903       0.174556       0.271728
  7720.88       0.709862       0.909862       0.709862       0.709862       0.241182      -0.132446
  7721.13       0.759285       0.959285       0.759285       0.759285       0.195178       0.00648494
  7721.38       0.807524        1.00752       0.807524       0.807524       0.211653       0.279259
  7721.61       0.86974        2.2664       0.869852        2.06651       0.262437      -0.112392
  7721.86       0.92964        2.23342       0.930138        2.03392       0.254068      -0.130418
  7722.1       0.980364        2.20204       0.981237        2.00291       0.171213      -0.036816
  7722.36        1.03125        2.16968        1.03251        1.97095       0.218294      -0.0196102
  7722.59        1.07716        2.14026        1.07879        1.94189       0.151164      -0.346114
  7722.85        1.10513        2.10914        1.10715        1.91117       0.128337       0.286368
  7723.05        1.14153        2.08435        1.14387        1.88669       0.170128      -0.193688
  7723.41        1.18704        2.04228        1.18993        1.84517       0.123796       0.000355116
  7723.8        1.2376        1.99689        1.2411        1.80039       0.102748      -0.141537
  7724.2        1.26631        1.95239        1.27042        1.7565       0.0284714  -0.147468
  7724.59        1.27172        1.90966        1.27645        1.71438       0.00932462  -0.0580469
  7725.01        1.26794        1.86595        1.27331        1.67132      -0.0321616  -0.0354349
  7726.51        1.20473        1.72008        1.21242        1.52777      -0.0463659   0.000810666
  7728.07        1.14098        1.58684        1.15108        1.39694      -0.0399767   0.00734536
  7729.59        1.09567        1.47344        1.10814        1.28591      -0.00820601   0.01734
  7731.15        1.09061        1.37426        1.10548        1.18914      -0.00197803   0.00489542
  7732.68        1.09729        1.29136        1.11454        1.10861      -0.00628665  -0.00939367
  7734.21        1.08191        1.22196        1.10154        1.04159      -0.00242701  -0.00198238
  7735.77        1.06152        1.16426        1.08356       0.986302      -0.01588   0.00828328
  7737.31        1.06134        1.11902        1.08576       0.943446      -0.00465971  -0.0138348
  7738.84        1.02848        1.08401        1.05528       0.910809      -0.0177904   0.00729848
  7740.39        1.01276        1.05798        1.04195       0.887169      -0.0139361  -0.00750063
  7741.95       0.978707        1.03982        1.01032       0.871436      -0.0249303   4.94085e-05
  7746.97       0.870298        1.02329       0.909682       0.86267      -0.016044   0.00171731
  7751.94       0.80564        1.03951       0.852716       0.886581      -0.0109918   0.0010115
  7756.95       0.765726        1.05752       0.820567       0.912363      -0.00105345   0.00265168
  7761.95       0.791873        1.07207       0.854455       0.934653       0.007739   0.00121765
  7766.97       0.848908        1.08346       0.919262       0.953809       0.0112533   6.83732e-05
  7771.99       0.907703        1.09181       0.985835       0.969947       0.0110656  -0.00134964
  7777       0.932373        1.09733        1.01826       0.983222       0.00227913  -0.000628613
  7784.15       0.940284        1.10071        1.03725       0.997682      -0.00410046  -0.000625192
  7791.28       0.916372        1.09935        1.02439        1.00736       0.000499795   0.000281818
  7798.44       0.906844        1.0938        1.02594        1.0129      -0.00289543  -0.000306506
  7805.61       0.881547        1.08462        1.01176        1.01483      -0.00363532   0.000145319
  7812.81       0.863706        1.07237        1.00506        1.01372       9.43045e-05  -4.95917e-05
  7819.99       0.843333        1.05768       0.995818        1.01016      -0.00371266   4.77802e-05
  7827.22       0.82533        1.04102       0.989012        1.0047      -0.00436049   8.72763e-05
  7834.44       0.811902        1.02311       0.986758       0.997963       0.000943515  -0.000124927
  7841.69       0.79184        1.00441       0.977928       0.990502      -0.00184956   0.000784715
  7845.32       0.802478       0.994988       0.994188       0.986697       0.00293064   0.00131686