Folder: Xray-Project/Dynamic XAS/Dynamic XAS Energy analyzed data/ESweep_0_5 Hz/Same Eo/Normalized Spectra (part 18)

File: Ir0_5Hz_ReaddMean_VPhsCorrect_36_-248_mV_.csv.nor
# XDI/1.0 Athena/0.9.26
# Element.edge:                  K
# Element.symbol:                Co
# Column.1:                      energy eV
# Column.2:                      norm
# Column.3:                      nbkg
# Column.4:                      flat
# Column.5:                      fbkg
# Column.6:                      nder
# Column.7:                      nsec
# Athena.e0:                     7721.54
# Athena.eshift:                 0
# Athena.rbkg:                   1.0
# Athena.importance:             1
# Athena.standard:               None
# Athena.bkg_kweight:            3
# Athena.edge_step:              1.19326
# Athena.fixed_step:             no
# Athena.pre_edge_range:         -82.964 -19.904
# Athena.pre_edge_line:          -0.003407 + 0.00021509 * E
# Athena.normalization_range:    45 125.256
# Athena.post_edge_polynomial:   15.6175 - 0.00165341 * E + 0 * E^2 + 0 * E^3
# Athena.spline_range_energy:    0.000 125.180
# Athena.clamps:                 0 24
# Athena.spline_range_k:         0.000 5.732
# Athena.kweight:                2
# Athena.window:                 hanning
# Athena.phase_correction:       no
# Athena.k_range:                .4 5.35
# Athena.dk:                     .5
# Athena.r_range:                .4 5.1
# Athena.dr:                     .5
# Athena.window:                 hanning
# Athena.plot_multiplier:        1
# Athena.y_offset:               0.2
# ///
#------------------------
#   e         norm        nbkg        flat        fbkg        nder        nsec
  7600.07      -0.211974      -0.0119744  -0.211974      -0.211974       0.0121798  -0.000510462
  7624.56      -0.0458857   0.154114      -0.0458857  -0.0458857   0.00283896  -0.000211056
  7649.7      -0.0162987   0.183701      -0.0162987  -0.0162987  -0.000301152   0.000105691
  7674.73       0.079304   0.279304       0.079304   0.079304   0.000177949  -0.000289918
  7700.01      -0.00833893   0.191661      -0.00833893  -0.00833893   0.000370395   0.000892715
  7700.72      -0.00253302   0.197467      -0.00253302  -0.00253302   0.00395073  -0.0211057
  7701.43      -0.00698483   0.193015      -0.00698483  -0.00698483   0.00194081   0.0180905
  7702.15      -0.00199157   0.198008      -0.00199157  -0.00199157  -0.00395344  -0.0176368
  7702.88      -0.00613295   0.193867      -0.00613295  -0.00613295  -0.00282789   0.00563803
  7703.6      -0.0073019   0.192698      -0.0073019  -0.0073019   0.0027848   0.0144542
  7704.32      -0.00094275   0.199057      -0.00094275  -0.00094275   0.00629292  -0.0142673
  7705.02      -0.00204558   0.197954      -0.00204558  -0.00204558  -0.00563275   0.00106941
  7705.75      -0.00266132   0.197339      -0.00266132  -0.00266132   0.0169349   0.036307
  7706.47       0.015891   0.215891       0.015891   0.015891   0.0296166   0.0112303
  7707.2       0.0403745   0.240375       0.0403745   0.0403745   0.0269385  -0.0233468
  7707.91       0.0524685   0.252469       0.0524685   0.0524685   0.00444797  -0.0211284
  7708.65       0.0535977   0.253598       0.0535977   0.0535977  -0.00315411  -0.0132131
  7709.29       0.048619   0.248619       0.048619   0.048619   0.00358607   0.0228532
  7709.9       0.0524815   0.252481       0.0524815   0.0524815  -0.00459761  -0.0315153
  7710.51       0.044489   0.244489       0.044489   0.044489  -0.00841776   0.0195014
  7711.11       0.0438083   0.243808       0.0438083   0.0438083   0.0117479   0.017713
  7711.73       0.049582   0.249582       0.049582   0.049582  -0.00224262  -0.0162177
  7712.33       0.0492271   0.249227       0.0492271   0.0492271  -0.00778012   0.0111867
  7712.95       0.0531307   0.253131       0.0531307   0.0531307   0.0203229   0.0330469
  7713.54       0.0682393   0.268239       0.0682393   0.0682393   0.0467785   0.0659618
  7714.16       0.109726       0.309726       0.109726       0.109726       0.0750752   0.00037425
  7714.78       0.150888       0.350888       0.150888       0.150888       0.0496943  -0.0472217
  7715.39       0.174127       0.374127       0.174127       0.174127       0.0468797   0.0137417
  7715.97       0.201263       0.401263       0.201263       0.201263       0.0312029  -0.0593139
  7716.26       0.206529       0.406529       0.206529       0.206529       0.0295818   0.160059
  7716.5       0.220052       0.420052       0.220052       0.220052       0.0682785   0.0368947
  7716.73       0.235204       0.435204       0.235204       0.235204       0.0555792  -0.0398257
  7716.99       0.249209       0.449209       0.249209       0.249209       0.0448051  -0.0643017
  7717.23       0.258977       0.458977       0.258977       0.258977       0.0533878   0.200495
  7717.46       0.279541       0.479541       0.279541       0.279541       0.0709841  -0.20611
  7717.71       0.28944       0.48944       0.28944       0.28944       0.0936584   0.254259
  7717.96       0.31531       0.51531       0.31531       0.31531       0.0685502   0.0294747
  7718.21       0.342449       0.542449       0.342449       0.342449       0.124602      -0.1359
  7718.44       0.360262       0.560262       0.360262       0.360262       0.0708838   0.0775421
  7718.69       0.384151       0.584151       0.384151       0.384151       0.0925881   0.0509538
  7718.94       0.41006       0.61006       0.41006       0.41006       0.131352       0.217045
  7719.17       0.447435       0.647435       0.447435       0.447435       0.130172      -0.233108
  7719.42       0.473757       0.673757       0.473757       0.473757       0.169532       0.218176
  7719.67       0.512119       0.712119       0.512119       0.512119       0.12414       0.0723007
  7719.9       0.553064       0.753064       0.553064       0.553064       0.183171      -0.0200602
  7720.15       0.595897       0.795897       0.595897       0.595897       0.219007       0.117163
  7720.4       0.64367       0.84367       0.64367       0.64367       0.150749      -0.127997
  7720.65       0.684687       0.884687       0.684687       0.684687       0.181354       0.294988
  7720.88       0.740252       0.940252       0.740252       0.740252       0.219666      -0.219542
  7721.13       0.78705       0.98705       0.78705       0.78705       0.2004       0.0479085
  7721.38       0.835121        1.03512       0.835121       0.835121       0.217433       0.264869
  7721.61       0.896327        2.24003       0.89644        2.04014       0.237625      -0.196279
  7721.86       0.950026        2.20777       0.95053        2.00827       0.246729      -0.0748425
  7722.1       0.997841        2.17707       0.998724        1.97795       0.146875      -0.0173362
  7722.36        1.04692        2.14542        1.0482        1.9467       0.205904      -0.0497788
  7722.59        1.08936        2.11664        1.09101        1.91829       0.140712      -0.363488
  7722.85        1.11253        2.0862        1.11457        1.88825       0.10977       0.292694
  7723.05        1.14534        2.06195        1.1477        1.86431       0.152765      -0.185306
  7723.41        1.18538        2.02081        1.1883        1.82373       0.102913       0.00509151
  7723.8        1.23061        1.9764        1.23415        1.77994       0.0956747  -0.146517
  7724.2        1.25314        1.93288        1.2573        1.73704       0.0245577  -0.120534
  7724.59        1.25664        1.89108        1.26142        1.69586       0.00677123  -0.0401109
  7725.01        1.25378        1.84833        1.25921        1.65376      -0.0313255  -0.0340918
  7726.51        1.19575        1.70568        1.20352        1.51345      -0.0417681   0.00137094
  7728.07        1.13876        1.57538        1.14898        1.3856      -0.0359075   0.0051834
  7729.59        1.09504        1.4645        1.10765        1.27711      -0.0099303   0.015707
  7731.15        1.08772        1.36755        1.10276        1.18259      -0.00327596   0.00416638
  7732.68        1.09044        1.28652        1.10788        1.10396      -0.00866762  -0.00691434
  7734.21        1.07691        1.2187        1.09676        1.03855       7.19819e-05  -0.00200811
  7735.77        1.05835        1.16233        1.08064       0.984616      -0.015286   0.0076923
  7737.31        1.05855        1.11816        1.08324       0.942848      -0.00478091  -0.013537
  7738.84        1.02677        1.08398        1.05387       0.911077      -0.0172613   0.00602796
  7740.39        1.00912        1.0586        1.03863       0.888109      -0.015322  -0.00603368
  7741.95       0.976661        1.04091        1.00862       0.872875      -0.0242228  -0.000321118
  7746.97       0.867237        1.02496       0.907056       0.86478      -0.0161372   0.00190868
  7751.94       0.806327        1.04098       0.853922       0.888577      -0.0099803   0.00102622
  7756.95       0.770566        1.05866       0.826012       0.914108      -0.000771466   0.002493
  7761.95       0.796908        1.07286       0.86018       0.936129       0.0076697   0.00113174
  7766.97       0.851967        1.08387       0.923096       0.955001       0.0106529  -3.97713e-05
  7771.99       0.906071        1.09186       0.985065       0.970849       0.0108811  -0.00119424
  7777       0.929976        1.097        1.01681       0.983839       0.00174173  -0.000594228
  7784.15       0.938286        1.09987        1.03632       0.997911      -0.00397241  -0.000611326
  7791.28       0.91548        1.09804        1.02469        1.00725       0.000852081   0.000225801
  7798.44       0.904186        1.0921        1.0246        1.01251      -0.0035756  -0.000259919
  7805.61       0.87951        1.08261        1.01116        1.01426      -0.00325795   0.000135152
  7812.81       0.861766        1.07016        1.00468        1.01308      -1.73741e-05  -3.63255e-05
  7819.99       0.842173        1.05541       0.996339        1.00958      -0.00358882   4.73471e-05
  7827.22       0.824933        1.03885       0.990418        1.00434      -0.00438464   4.21333e-05
  7834.44       0.809917        1.02123       0.986701       0.998012       0.000917904  -7.39235e-05
  7841.69       0.790941        1.00303       0.97908       0.991171      -0.00174328   0.000750667
  7845.32       0.801225       0.99394       0.995048       0.987763       0.00283307   0.0012607

File: Ir0_5Hz_ReaddMean_VPhsCorrect_38_-248_mV_.csv.nor
# XDI/1.0 Athena/0.9.26
# Element.edge:                  K
# Element.symbol:                Co
# Column.1:                      energy eV
# Column.2:                      norm
# Column.3:                      nbkg
# Column.4:                      flat
# Column.5:                      fbkg
# Column.6:                      nder
# Column.7:                      nsec
# Athena.e0:                     7721.54
# Athena.eshift:                 0
# Athena.rbkg:                   1.0
# Athena.importance:             1
# Athena.standard:               None
# Athena.bkg_kweight:            3
# Athena.edge_step:              1.1929
# Athena.fixed_step:             no
# Athena.pre_edge_range:         -82.964 -19.904
# Athena.pre_edge_line:          -0.007993 + 0.000215711 * E
# Athena.normalization_range:    45 125.256
# Athena.post_edge_polynomial:   15.5909 - 0.00164997 * E + 0 * E^2 + 0 * E^3
# Athena.spline_range_energy:    0.000 125.180
# Athena.clamps:                 0 24
# Athena.spline_range_k:         0.000 5.732
# Athena.kweight:                2
# Athena.window:                 hanning
# Athena.phase_correction:       no
# Athena.k_range:                .4 5.35
# Athena.dk:                     .5
# Athena.r_range:                .4 5.1
# Athena.dr:                     .5
# Athena.window:                 hanning
# Athena.plot_multiplier:        1
# Athena.y_offset:               0.2
# ///
#------------------------
#   e         norm        nbkg        flat        fbkg        nder        nsec
  7600.07      -0.212384      -0.0123839  -0.212384      -0.212384       0.0121572  -0.000505544
  7624.56      -0.0455745   0.154425      -0.0455745  -0.0455745   0.00285947  -0.000211929
  7649.7      -0.0158305   0.18417      -0.0158305  -0.0158305  -0.000314765   0.000105438
  7674.73       0.0797701   0.27977       0.0797702   0.0797702   0.000160932  -0.000292182
  7700.01      -0.00931348   0.190687      -0.00931348  -0.00931348   0.000471578   0.00108516
  7700.72      -0.00176645   0.198234      -0.00176645  -0.00176645   0.00359144  -0.0263079
  7701.43      -0.0070029   0.192997      -0.0070029  -0.0070029   0.00173774   0.0204403
  7702.15      -0.00156916   0.198431      -0.00156916  -0.00156916  -0.00274976  -0.0201758
  7702.88      -0.00658622   0.193414      -0.00658622  -0.00658622  -0.0037486   0.0100893
  7703.6      -0.00629402   0.193706      -0.00629402  -0.00629402   0.0019143   0.00946833
  7704.32      -0.00106459   0.198935      -0.00106459  -0.00106459   0.0047599  -0.0129091
  7705.02      -0.00256508   0.197435      -0.00256508  -0.00256508  -0.00258291   0.00338517
  7705.75      -0.00242633   0.197574      -0.00242633  -0.00242633   0.0164615   0.0352896
  7706.47       0.0163363   0.216336       0.0163363   0.0163363   0.0295312   0.00794103
  7707.2       0.0393163   0.239316       0.0393163   0.0393163   0.027062  -0.01969
  7707.91       0.0518281   0.251828       0.0518281   0.0518281   0.00267418  -0.0234333
  7708.65       0.0521639   0.252164       0.0521639   0.0521639  -0.00141206  -0.010755
  7709.29       0.0475976   0.247598       0.0475976   0.0475976   0.00106345   0.0241567
  7709.9       0.0523432   0.252343       0.0523432   0.0523432  -0.00301637  -0.0346945
  7710.51       0.0440363   0.244036       0.0440363   0.0440363  -0.00766235   0.0229913
  7711.11       0.0443186   0.244319       0.0443186   0.0443186   0.0117547   0.0130556
  7711.73       0.0493886   0.249389       0.0493886   0.0493886  -0.00353628  -0.0137615
  7712.33       0.0492556   0.249256       0.0492556   0.0492556  -0.00594166   0.0123993
  7712.95       0.0538479   0.253848       0.0538479   0.0538479   0.0219093   0.0362719
  7713.54       0.0707214   0.270721       0.0707214   0.0707214   0.0450504   0.0570704
  7714.16       0.110664       0.310664       0.110664       0.110664       0.0762466   0.0045444
  7714.78       0.151885       0.351885       0.151885       0.151885       0.0524409  -0.0471096
  7715.39       0.175222       0.375222       0.175222       0.175222       0.0459599   0.0198362
  7715.97       0.204572       0.404572       0.204572       0.204572       0.030748  -0.0792699
  7716.26       0.208269       0.408269       0.208269       0.208269       0.0296694   0.206244
  7716.5       0.223032       0.423032       0.223032       0.223032       0.0665091   0.00455322
  7716.73       0.237459       0.437459       0.237459       0.237459       0.0529538  -0.0251624
  7716.99       0.251595       0.451595       0.251595       0.251595       0.0441338  -0.0984326
  7717.23       0.259535       0.459535       0.259535       0.259535       0.0636421   0.254837
  7717.46       0.281486       0.481486       0.281486       0.281486       0.0596643  -0.196986
  7717.71       0.293437       0.493437       0.293437       0.293437       0.0994097   0.193303
  7717.96       0.317566       0.517566       0.317566       0.317566       0.0734222   0.0676837
  7718.21       0.345171       0.545171       0.345171       0.345171       0.122467      -0.16711
  7718.44       0.361567       0.561567       0.361567       0.361567       0.0741749   0.141518
  7718.69       0.387887       0.587887       0.387887       0.387887       0.0892033  -0.0225544
  7718.94       0.411995       0.611995       0.411995       0.411995       0.142219       0.28544
  7719.17       0.451634       0.651634       0.451634       0.451634       0.126796      -0.279239
  7719.42       0.47759       0.67759       0.47759       0.47759       0.159402       0.190559
  7719.67       0.513991       0.713991       0.513991       0.513991       0.132444       0.146101
  7719.9       0.557451       0.757451       0.557451       0.557451       0.187067      -0.0594554
  7720.15       0.60054       0.80054       0.60054       0.60054       0.218749       0.071924
  7720.4       0.645997       0.845997       0.645997       0.645997       0.142759      -0.0703277
  7720.65       0.688217       0.888217       0.688217       0.688217       0.181953       0.300741
  7720.88       0.745242       0.945242       0.745242       0.745242       0.215268      -0.247493
  7721.13       0.791879       0.991879       0.791879       0.791879       0.211366       0.0303169
  7721.38       0.838785        1.03879       0.838785       0.838785       0.216625       0.266089
  7721.61       0.89896        2.2323       0.899073        2.03241       0.220778      -0.157375
  7721.86       0.953926        2.20029       0.95443        2.00079       0.256986      -0.0878696
  7722.1        1.00224        2.16983        1.00312        1.97072       0.139092      -0.0309545
  7722.36        1.05097        2.13843        1.05225        1.93971       0.211825      -0.118074
  7722.59        1.08904        2.10987        1.09068        1.91152       0.141041      -0.262381
  7722.85        1.11375        2.07967        1.1158        1.88172       0.107387       0.228786
  7723.05        1.14476        2.05561        1.14712        1.85797       0.14542      -0.152748
  7723.41        1.18462        2.01478        1.18754        1.8177       0.104831       0.0110168
  7723.8        1.23055        1.97073        1.23408        1.77426       0.0902209  -0.158111
  7724.2        1.25196        1.92754        1.25612        1.73169       0.0248847  -0.113022
  7724.59        1.25553        1.88606        1.2603        1.69084       0.0096169  -0.0492354
  7725.01        1.25125        1.84364        1.25667        1.64906      -0.031754  -0.0287434
  7726.51        1.19556        1.70207        1.20333        1.50984      -0.0422306   0.000707608
  7728.07        1.1394        1.57276        1.1496        1.38297      -0.035077   0.00521662
  7729.59        1.09656        1.46271        1.10915        1.2753      -0.0107771   0.0146799
  7731.15        1.0877        1.36646        1.10272        1.18148      -0.00381423   0.00434973
  7732.68        1.08934        1.286        1.10676        1.10343      -0.00777958  -0.00575922
  7734.21        1.07746        1.21866        1.09728        1.03848      -0.000183418  -0.0028417
  7735.77        1.05856        1.16266        1.08082       0.984922      -0.0140511   0.00785693
  7737.31        1.05883        1.11876        1.08349       0.943428      -0.00536101  -0.014136
  7738.84        1.0257        1.08479        1.05276       0.911849      -0.0178557   0.00753415
  7740.39        1.01027        1.05953        1.03975       0.889004      -0.0152298  -0.00799848
  7741.95       0.975312        1.04191        1.00724       0.87383      -0.0236896   0.0003118
  7746.97       0.868325        1.02585       0.908095       0.865617      -0.0162153   0.00185436
  7751.94       0.808478        1.04154       0.856015       0.889082      -0.0101832   0.000887054
  7756.95       0.7703        1.05894       0.82568       0.914322      -0.000603866   0.00264789
  7761.95       0.798084        1.07294       0.86128       0.936133       0.00768237   0.00108916
  7766.97       0.853513        1.08382       0.924558       0.954865       0.0105326  -7.45863e-05
  7771.99       0.907117        1.09174       0.986015       0.970635       0.0108  -0.00123238
  7777       0.92956        1.09686        1.01629       0.983599       0.001867  -0.000554833
  7784.15       0.937497        1.09978        1.03542       0.997704      -0.00407276  -0.000565634
  7791.28       0.916641        1.09806        1.02572        1.00713       0.000843889   0.000168298
  7798.44       0.904355        1.09224        1.02462        1.01251      -0.00338817  -0.000271216
  7805.61       0.878103        1.08289        1.00959        1.01438      -0.0032403   0.000178462
  7812.81       0.861019        1.07054        1.00376        1.01329       2.92609e-06  -2.46072e-05
  7819.99       0.842691        1.05584       0.996672        1.00982      -0.00347044   3.34421e-05
  7827.22       0.825996        1.03925       0.991284        1.00453      -0.00462517   1.78877e-05
  7834.44       0.810265        1.02147       0.986836       0.998042       0.00101844  -7.59525e-05
  7841.69       0.790461        1.00298       0.978375       0.99089      -0.00194719   0.000756638
  7845.32       0.800489       0.993671       0.99408       0.987263       0.00276242   0.00129741