Folder: Xray-Project/Dynamic XAS/Dynamic XAS Energy analyzed data/ESweep_0_5 Hz/Same Eo/Normalized Spectra (part 17)

File: Ir0_5Hz_ReaddMean_VPhsCorrect_34_-232_mV_.csv.nor
# XDI/1.0 Athena/0.9.26
# Element.edge:                  K
# Element.symbol:                Co
# Column.1:                      energy eV
# Column.2:                      norm
# Column.3:                      nbkg
# Column.4:                      flat
# Column.5:                      fbkg
# Column.6:                      nder
# Column.7:                      nsec
# Athena.e0:                     7721.54
# Athena.eshift:                 0
# Athena.rbkg:                   1.0
# Athena.importance:             1
# Athena.standard:               None
# Athena.bkg_kweight:            3
# Athena.edge_step:              1.19364
# Athena.fixed_step:             no
# Athena.pre_edge_range:         -82.964 -19.904
# Athena.pre_edge_line:          -0.021369 + 0.000217402 * E
# Athena.normalization_range:    45 125.256
# Athena.post_edge_polynomial:   15.6303 - 0.00165503 * E + 0 * E^2 + 0 * E^3
# Athena.spline_range_energy:    0.000 125.180
# Athena.clamps:                 0 24
# Athena.spline_range_k:         0.000 5.732
# Athena.kweight:                2
# Athena.window:                 hanning
# Athena.phase_correction:       no
# Athena.k_range:                .4 5.35
# Athena.dk:                     .5
# Athena.r_range:                .4 5.1
# Athena.dr:                     .5
# Athena.window:                 hanning
# Athena.plot_multiplier:        1
# Athena.y_offset:               0.2
# ///
#------------------------
#   e         norm        nbkg        flat        fbkg        nder        nsec
  7600.07      -0.211405      -0.0114054  -0.211405      -0.211405       0.0120797  -0.000501876
  7624.56      -0.0455453   0.154455      -0.0455453  -0.0455453   0.0028625  -0.000210066
  7649.7      -0.0155319   0.184468      -0.0155319  -0.0155319  -0.00035476   0.000103842
  7674.73       0.0793382   0.279338       0.0793382   0.0793382   0.000219922  -0.000288353
  7700.01      -0.00805046   0.19195      -0.00805046  -0.00805046   0.000333162   0.000869633
  7700.72      -0.00245109   0.197549      -0.00245109  -0.00245109   0.00560851  -0.0198915
  7701.43      -0.00651823   0.193482      -0.00651823  -0.00651823   0.000873366   0.0150912
  7702.15      -0.00270921   0.197291      -0.00270921  -0.00270921  -0.00333519  -0.0153337
  7702.88      -0.00684418   0.193156      -0.00684418  -0.00684418  -0.00227529   0.00844628
  7703.6      -0.00653476   0.193465      -0.00653476  -0.00653476   0.00234284   0.00920534
  7704.32      -0.0014251   0.198575      -0.0014251  -0.0014251   0.0051862  -0.0115232
  7705.02      -0.00234113   0.197659      -0.00234113  -0.00234113  -0.00540413   0.00186696
  7705.75      -0.00235742   0.197643      -0.00235742  -0.00235742   0.0174353   0.0360783
  7706.47       0.0166679   0.216668       0.0166679   0.0166679   0.0285873   0.00857671
  7707.2       0.0402432   0.240243       0.0402432   0.0402432   0.0264976  -0.0221555
  7707.91       0.0520583   0.252058       0.0520583   0.0520583   0.00473202  -0.020971
  7708.65       0.0529871   0.252987       0.0529871   0.0529871  -0.00167745  -0.0131356
  7709.29       0.0478669   0.247867       0.0478669   0.0478669   0.00332457   0.0252636
  7709.9       0.0525019   0.252502       0.0525019   0.0525019  -0.00471844  -0.034128
  7710.51       0.0442978   0.244298       0.0442978   0.0442978  -0.00924393   0.0221343
  7711.11       0.0443683   0.244368       0.0443683   0.0443683   0.0109397   0.0124671
  7711.73       0.049003   0.249003       0.049003   0.049003  -0.00334335  -0.012691
  7712.33       0.0488402   0.24884       0.0488402   0.0488402  -0.00834526   0.00887424
  7712.95       0.0520578   0.252058       0.0520578   0.0520578   0.0228306   0.0329521
  7713.54       0.0664865   0.266487       0.0664865   0.0664865   0.0460245   0.0652824
  7714.16       0.106987       0.306987       0.106987       0.106987       0.0732466   0.00514359
  7714.78       0.148988       0.348988       0.148988       0.148988       0.0507917  -0.0491054
  7715.39       0.172358       0.372358       0.172358       0.172358       0.0465949   0.010712
  7715.97       0.198569       0.398569       0.198569       0.198569       0.0291319  -0.0517628
  7716.26       0.204386       0.404386       0.204386       0.204386       0.0341331   0.149118
  7716.5       0.21777       0.41777       0.21777       0.21777       0.0679379   0.0207429
  7716.73       0.231833       0.431833       0.231833       0.231833       0.0549416  -0.0190211
  7716.99       0.24596       0.44596       0.24596       0.24596       0.0502039  -0.0349108
  7717.23       0.257532       0.457532       0.257532       0.257532       0.0370162   0.122124
  7717.46       0.275312       0.475312       0.275312       0.275312       0.0792349  -0.132607
  7717.71       0.286609       0.486609       0.286609       0.286609       0.0921761   0.261772
  7717.96       0.314357       0.514357       0.314357       0.314357       0.0673391  -0.0836843
  7718.21       0.336885       0.536885       0.336885       0.336885       0.128263       0.00121289
  7718.44       0.358479       0.558479       0.358479       0.358479       0.0581604  -0.0500708
  7718.69       0.378543       0.578543       0.378543       0.378543       0.0992792   0.156922
  7718.94       0.406737       0.606737       0.406737       0.406737       0.127665       0.139704
  7719.17       0.44179       0.64179       0.44179       0.44179       0.130132      -0.174508
  7719.42       0.469179       0.669179       0.469179       0.469179       0.184984       0.196654
  7719.67       0.507333       0.707333       0.507333       0.507333       0.112017       0.0770851
  7719.9       0.548363       0.748363       0.548363       0.548363       0.182372      -0.0201657
  7720.15       0.591282       0.791282       0.591282       0.591282       0.216869       0.135462
  7720.4       0.640173       0.840173       0.640173       0.640173       0.151597      -0.133264
  7720.65       0.68201       0.88201       0.68201       0.68201       0.178103       0.219236
  7720.88       0.733928       0.933928       0.733928       0.733928       0.231806      -0.131817
  7721.13       0.782256       0.982256       0.782256       0.782256       0.192002       0.0339692
  7721.38       0.831009        1.03101       0.831009       0.831009       0.21834       0.242244
  7721.61       0.891522        2.25071       0.891635        2.05082       0.242572      -0.169034
  7721.86       0.946139        2.21811       0.946644        2.01861       0.242428      -0.0915129
  7722.1       0.993915        2.18709       0.994799        1.98798       0.155452       0.00891961
  7722.36        1.04463        2.15511        1.04591        1.95639       0.21383      -0.0821464
  7722.59        1.08667        2.12603        1.08832        1.92768       0.136345      -0.329467
  7722.85        1.1115        2.09528        1.11355        1.89733       0.115265       0.265296
  7723.05        1.14435        2.07077        1.14672        1.87314       0.155374      -0.18662
  7723.41        1.18435        2.0292        1.18727        1.83213       0.104638       0.0199923
  7723.8        1.23181        1.98434        1.23535        1.78789       0.0951161  -0.15125
  7724.2        1.25585        1.94037        1.26002        1.74454       0.020157  -0.153491
  7724.59        1.2557        1.89814        1.26049        1.70293       0.00682741   0.00100868
  7725.01        1.25571        1.85495        1.26115        1.66039      -0.029187  -0.0412606
  7726.51        1.19797        1.71084        1.20577        1.51863      -0.0421757   0.000258527
  7728.07        1.13856        1.57923        1.1488        1.38947      -0.0376661   0.0064138
  7729.59        1.09534        1.46725        1.10797        1.27989      -0.00843398   0.015749
  7731.15        1.08862        1.36935        1.10369        1.18442      -0.00351052   0.00406271
  7732.68        1.09169        1.28755        1.10917        1.10502      -0.00775702  -0.00691393
  7734.21        1.07852        1.21911        1.0984        1.03899      -0.000962342  -0.00254166
  7735.77        1.05904        1.16223        1.08137       0.984556      -0.0160303   0.0083912
  7737.31        1.06001        1.11768        1.08474       0.942419      -0.00414609  -0.0143931
  7738.84        1.02698        1.08324        1.05412       0.910386      -0.0175573   0.00692559
  7740.39        1.0102        1.05768        1.03977       0.887249      -0.0146397  -0.00685564
  7741.95       0.976638        1.03991        1.00866       0.871929      -0.0243028  -4.04175e-05
  7746.97       0.868313        1.02408       0.908203       0.863965      -0.0158892   0.00178571
  7751.94       0.805437        1.04049       0.853117       0.888167      -0.010405   0.00110029
  7756.95       0.769549        1.05849       0.825094       0.914034      -0.000921144   0.00249624
  7761.95       0.795844        1.07288       0.859229       0.93627       0.0077864   0.001174
  7766.97       0.851924        1.084       0.92318       0.955258       0.0104128  -6.22379e-05
  7771.99       0.906487        1.092       0.985622       0.971138       0.0110234  -0.00115746
  7777       0.931775        1.0971        1.01877       0.984092       0.00207761  -0.000662389
  7784.15       0.9391        1.09982        1.03731       0.998034      -0.0041062  -0.000612272
  7791.28       0.915263        1.09779        1.02466        1.00719       0.000800171   0.000244296
  7798.44       0.903884        1.09164        1.02451        1.01227      -0.00372222  -0.00024312
  7805.61       0.879984        1.082        1.01187        1.01389      -0.00297066   7.30877e-05
  7812.81       0.859808        1.0695        1.00298        1.01268      -6.91914e-05   5.68931e-05
  7819.99       0.842594        1.05486       0.997035        1.0093      -0.00352787  -1.6985e-05
  7827.22       0.824387        1.03861       0.990169        1.00439      -0.00454283   7.72772e-05
  7834.44       0.810235        1.02155       0.987335       0.99865       0.000946359  -0.000130539
  7841.69       0.789151        1.00423       0.977627       0.992709      -0.00158764   0.000883216
  7845.32       0.801874       0.995715       0.996044       0.989885       0.00350481   0.00140288

File: Ir0_5Hz_ReaddMean_VPhsCorrect_35_-242_mV_.csv.nor
# XDI/1.0 Athena/0.9.26
# Element.edge:                  K
# Element.symbol:                Co
# Column.1:                      energy eV
# Column.2:                      norm
# Column.3:                      nbkg
# Column.4:                      flat
# Column.5:                      fbkg
# Column.6:                      nder
# Column.7:                      nsec
# Athena.e0:                     7721.54
# Athena.eshift:                 0
# Athena.rbkg:                   1.0
# Athena.importance:             1
# Athena.standard:               None
# Athena.bkg_kweight:            3
# Athena.edge_step:              1.19404
# Athena.fixed_step:             no
# Athena.pre_edge_range:         -82.964 -19.904
# Athena.pre_edge_line:          -0.000389 + 0.00021468 * E
# Athena.normalization_range:    45 125.256
# Athena.post_edge_polynomial:   15.6818 - 0.00166165 * E + 0 * E^2 + 0 * E^3
# Athena.spline_range_energy:    0.000 125.180
# Athena.clamps:                 0 24
# Athena.spline_range_k:         0.000 5.732
# Athena.kweight:                2
# Athena.window:                 hanning
# Athena.phase_correction:       no
# Athena.k_range:                .4 5.35
# Athena.dk:                     .5
# Athena.r_range:                .4 5.1
# Athena.dr:                     .5
# Athena.window:                 hanning
# Athena.plot_multiplier:        1
# Athena.y_offset:               0.2
# ///
#------------------------
#   e         norm        nbkg        flat        fbkg        nder        nsec
  7600.07      -0.211459      -0.011459  -0.211459      -0.211459       0.0121184  -0.000506027
  7624.56      -0.0457249   0.154275      -0.0457249  -0.0457249   0.0028477  -0.000209973
  7649.7      -0.0157791   0.184221      -0.0157791  -0.0157791  -0.000326063   0.000104094
  7674.73       0.0791814   0.279181       0.0791814   0.0791814   0.000172285  -0.00028857
  7700.01      -0.00825362   0.191746      -0.00825362  -0.00825362   0.000391975   0.000907343
  7700.72      -0.00230645   0.197694      -0.00230645  -0.00230645   0.00490299  -0.0205712
  7701.43      -0.0063548   0.193645      -0.0063548  -0.0063548   0.0013994   0.0145366
  7702.15      -0.00281751   0.197182      -0.00281751  -0.00281751  -0.00413288  -0.0140381
  7702.88      -0.00655278   0.193447      -0.00655278  -0.00655278  -0.00191526   0.00718242
  7703.6      -0.00650779   0.193492      -0.00650779  -0.00650779   0.00231029   0.0105713
  7704.32      -0.000951964   0.199048      -0.000951964  -0.000951964   0.00583934  -0.0125346
  7705.02      -0.00195062   0.198049      -0.00195062  -0.00195062  -0.00584762   0.00149816
  7705.75      -0.00224018   0.19776      -0.00224018  -0.00224018   0.017722   0.035853
  7706.47       0.0163956   0.216396       0.0163956   0.0163956   0.0284138   0.0104133
  7707.2       0.040537   0.240537       0.040537   0.040537   0.0277097  -0.0226608
  7707.91       0.0526498   0.25265       0.0526498   0.0526498   0.00431328  -0.0218114
  7708.65       0.0534372   0.253437       0.0534372   0.0534372  -0.00208888  -0.012412
  7709.29       0.0485196   0.24852       0.0485196   0.0485196   0.00345472   0.0231879
  7709.9       0.0525662   0.252566       0.0525662   0.0525662  -0.00501822  -0.0333806
  7710.51       0.0440564   0.244056       0.0440564   0.0440564  -0.00930501   0.0224636
  7711.11       0.0439494   0.243949       0.0439494   0.0439494   0.0121294   0.0155221
  7711.73       0.0495176   0.249518       0.0495176   0.0495176  -0.00228909  -0.0158593
  7712.33       0.0490936   0.249094       0.0490936   0.0490936  -0.00907708   0.00982295
  7712.95       0.0524068   0.252407       0.0524068   0.0524068   0.0215264   0.0337977
  7713.54       0.0672181   0.267218       0.0672181   0.0672181   0.0462166   0.065742
  7714.16       0.108303       0.308303       0.108303       0.108303       0.0742919   0.00390581
  7714.78       0.150411       0.350411       0.150411       0.150411       0.0504719  -0.0501018
  7715.39       0.173519       0.373519       0.173519       0.173519       0.0459683   0.0113082
  7715.97       0.199685       0.399685       0.199685       0.199685       0.0305474  -0.0548506
  7716.26       0.205072       0.405072       0.205072       0.205072       0.0348715   0.157418
  7716.5       0.218551       0.418551       0.218551       0.218551       0.0642771   0.040707
  7716.73       0.233887       0.433887       0.233887       0.233887       0.0555882  -0.0464576
  7716.99       0.247674       0.447674       0.247674       0.247674       0.0479969  -0.0506157
  7717.23       0.258018       0.458018       0.258018       0.258018       0.0439257   0.175621
  7717.46       0.277701       0.477701       0.277701       0.277701       0.0791624  -0.185917
  7717.71       0.287859       0.487859       0.287859       0.287859       0.0914427   0.275181
  7717.96       0.315297       0.515297       0.315297       0.315297       0.0658583  -0.0437546
  7718.21       0.3398       0.5398       0.3398       0.3398       0.12853      -0.0611238
  7718.44       0.359558       0.559558       0.359558       0.359558       0.0648965   0.00831199
  7718.69       0.381259       0.581259       0.381259       0.381259       0.09543   0.109753
  7718.94       0.408372       0.608372       0.408372       0.408372       0.128572       0.176839
  7719.17       0.444556       0.644556       0.444556       0.444556       0.130811      -0.203749
  7719.42       0.471382       0.671382       0.471382       0.471382       0.17732       0.203281
  7719.67       0.509371       0.709371       0.509371       0.509371       0.116812       0.0800953
  7719.9       0.550423       0.750423       0.550423       0.550423       0.185833      -0.0141643
  7720.15       0.593738       0.793738       0.593738       0.593738       0.21711       0.120567
  7720.4       0.642168       0.842168       0.642168       0.642168       0.151191      -0.141203
  7720.65       0.683039       0.883038       0.683038       0.683038       0.176432       0.264963
  7720.88       0.736717       0.936717       0.736717       0.736717       0.227132      -0.169234
  7721.13       0.784616       0.984616       0.784616       0.784616       0.197615       0.0218581
  7721.38       0.832259        1.03226       0.832259       0.832259       0.215678       0.275725
  7721.61       0.893703        2.24389       0.893816        2.04401       0.240845      -0.191821
  7721.86       0.947928        2.21148       0.948434        2.01199       0.245437      -0.0942501
  7722.1       0.995173        2.18065       0.996059        1.98154       0.150805       0.00830488
  7722.36        1.04529        2.14886        1.04658        1.95014       0.207196      -0.0516242
  7722.59        1.08859        2.11995        1.09025        1.9216       0.136234      -0.376407
  7722.85        1.11188        2.08938        1.11393        1.89143       0.118594       0.290241
  7723.05        1.14467        2.06501        1.14704        1.86739       0.152514      -0.187295
  7723.41        1.1845        2.02369        1.18743        1.82662       0.102312       0.0101745
  7723.8        1.23026        1.97909        1.23381        1.78264       0.0956108  -0.141917
  7724.2        1.25407        1.93537        1.25825        1.73955       0.0238659  -0.145635
  7724.59        1.25492        1.89339        1.25971        1.69819       0.00380365  -0.00955578
  7725.01        1.25425        1.85046        1.2597        1.65591      -0.030414  -0.0395276
  7726.51        1.1965        1.70718        1.2043        1.51499      -0.0408732   0.000653707
  7728.07        1.13804        1.57634        1.1483        1.38659      -0.0372908   0.00610483
  7729.59        1.09503        1.465        1.10769        1.27766      -0.00896976   0.0150189
  7731.15        1.08681        1.36766        1.10191        1.18275      -0.00375172   0.00525744
  7732.68        1.09124        1.28631        1.10875        1.10382      -0.00801859  -0.00777473
  7734.21        1.07741        1.21826        1.09733        1.03817      -0.000296266  -0.00212006
  7735.77        1.05827        1.16169        1.08064       0.984056      -0.016246   0.00806208
  7737.31        1.05879        1.11738        1.08357       0.942162      -0.00399912  -0.0140341
  7738.84        1.02615        1.08312        1.05334       0.910312      -0.0173185   0.00649414
  7740.39        1.00875        1.05769        1.03836       0.887305      -0.0146709  -0.00599997
  7741.95       0.976616        1.03999        1.00869       0.872069      -0.0246067  -0.000397359
  7746.97       0.86699        1.02418       0.906949       0.864139      -0.0158125   0.00187614
  7751.94       0.805072        1.04044       0.852835       0.888205      -0.010274   0.00108088
  7756.95       0.769665        1.05831       0.825307       0.913952      -0.000804187   0.00249332
  7761.95       0.796367        1.07262       0.859863       0.936115       0.00769506   0.00113967
  7766.97       0.851988        1.08369       0.923369       0.955067       0.0106053  -5.81597e-05
  7771.99       0.906194        1.09167       0.985466       0.970944       0.0109192  -0.0011727
  7777       0.930741        1.09677        1.01789       0.98392       0.00195196  -0.000628206
  7784.15       0.938494        1.09954        1.03688       0.997922      -0.00412134  -0.000620987
  7791.28       0.91464        1.09757        1.02423        1.00716       0.000890855   0.000252003
  7798.44       0.90364        1.09148        1.02447        1.01231      -0.00382471  -0.000255699
  7805.61       0.879474        1.08187        1.01159        1.01398      -0.00307196   0.000104358
  7812.81       0.860649        1.06937        1.00407        1.01279       3.33507e-05   8.59607e-06
  7819.99       0.842293        1.05465       0.997004        1.00936      -0.00364894   1.78653e-05
  7827.22       0.824758        1.03825       0.990829        1.00432      -0.00434347   4.44193e-05
  7834.44       0.809568        1.02094       0.986976       0.998346       0.000983356  -9.21361e-05
  7841.69       0.789458        1.00324       0.978262       0.992047      -0.00176392   0.000818784
  7845.32       0.800969       0.994482       0.995478       0.98899       0.00317132   0.00135957