Folder: Xray-Project/Dynamic XAS/Dynamic XAS Energy analyzed data/ESweep_0_5 Hz/Same Eo/Normalized Spectra (part 11)

File: Ir0_5Hz_ReaddMean_VPhsCorrect_21_106_mV_.csv.nor
# XDI/1.0 Athena/0.9.26
# Element.edge:                  K
# Element.symbol:                Co
# Column.1:                      energy eV
# Column.2:                      norm
# Column.3:                      nbkg
# Column.4:                      flat
# Column.5:                      fbkg
# Column.6:                      nder
# Column.7:                      nsec
# Athena.e0:                     7721.54
# Athena.eshift:                 0
# Athena.rbkg:                   1.0
# Athena.importance:             1
# Athena.standard:               None
# Athena.bkg_kweight:            3
# Athena.edge_step:              1.19498
# Athena.fixed_step:             no
# Athena.pre_edge_range:         -82.964 -19.904
# Athena.pre_edge_line:          0.204336 + 0.000188047 * E
# Athena.normalization_range:    45 125.256
# Athena.post_edge_polynomial:   15.737 - 0.0016688 * E + 0 * E^2 + 0 * E^3
# Athena.spline_range_energy:    0.000 125.180
# Athena.clamps:                 0 24
# Athena.spline_range_k:         0.000 5.732
# Athena.kweight:                2
# Athena.window:                 hanning
# Athena.phase_correction:       no
# Athena.k_range:                .4 5.35
# Athena.dk:                     .5
# Athena.r_range:                .4 5.1
# Athena.dr:                     .5
# Athena.window:                 hanning
# Athena.plot_multiplier:        1
# Athena.y_offset:               0.2
# ///
#------------------------
#   e         norm        nbkg        flat        fbkg        nder        nsec
  7600.07      -0.214008      -0.0140083  -0.214008      -0.214008       0.0119914  -0.000491846
  7624.56      -0.0477126   0.152287      -0.0477126  -0.0477126   0.00300965  -0.000206422
  7649.7      -0.0148189   0.185181      -0.0148189  -0.0148189  -0.000337232   9.20969e-05
  7674.73       0.0755687   0.275569       0.0755687   0.0755687   0.000210148  -0.000275637
  7700.01      -0.00826774   0.191732      -0.00826774  -0.00826774   0.000323151   0.000911365
  7700.72      -0.0021824   0.197818      -0.0021824  -0.0021824   0.0048428  -0.0205197
  7701.43      -0.00606627   0.193934      -0.00606627  -0.00606627   0.00163231   0.0143017
  7702.15      -0.00248626   0.197514      -0.00248626  -0.00248626  -0.00319288  -0.0142179
  7702.88      -0.00627199   0.193728      -0.00627199  -0.00627199  -0.00362645   0.00579495
  7703.6      -0.0070045   0.192995      -0.0070045  -0.0070045   0.00171825   0.0125298
  7704.32      -0.00120959   0.19879      -0.00120959  -0.00120959   0.00498494  -0.0135747
  7705.02      -0.00250387   0.197496      -0.00250387  -0.00250387  -0.00311178   0.00254087
  7705.75      -0.00257598   0.197424      -0.00257598  -0.00257598   0.0142713   0.0328533
  7706.47       0.014692   0.214692       0.014692   0.014692   0.029455   0.0113591
  7707.2       0.0379529   0.237953       0.0379529   0.0379529   0.0259197  -0.018585
  7707.91       0.0513201   0.25132       0.0513201   0.0513201   0.00658436  -0.0211073
  7708.65       0.0537548   0.253755       0.0537548   0.0537548  -2.65464e-05  -0.0154687
  7709.29       0.0489066   0.248907       0.0489066   0.0489066   0.00219849   0.0247653
  7709.9       0.053613   0.253613       0.053613   0.053613  -0.00456784  -0.0378331
  7710.51       0.0440877   0.244088       0.0440877   0.0440877  -0.0115401   0.0204517
  7711.11       0.0422621   0.242262       0.0422621   0.0422621   0.00733513   0.0119041
  7711.73       0.0447214   0.244721       0.0447214   0.0447214  -0.00765833  -0.0125924
  7712.33       0.0424515   0.242452       0.0424515   0.0424515  -0.00640706   0.0114656
  7712.95       0.0445087   0.244509       0.0445087   0.0445087   0.0141756   0.0329692
  7713.54       0.0578483   0.257848       0.0578483   0.0578483   0.0428931   0.0574789
  7714.16       0.0941846   0.294185       0.0941846   0.0941846   0.0771722   0.0209136
  7714.78       0.138061       0.338061       0.138061       0.138061       0.0450869  -0.0597086
  7715.39       0.159367       0.359367       0.159367       0.159367       0.0487559   0.0182076
  7715.97       0.186196       0.386196       0.186196       0.186196       0.0199285  -0.0575244
  7716.26       0.19155       0.39155       0.19155       0.19155       0.0362502   0.135277
  7716.5       0.203758       0.403758       0.203758       0.203758       0.0739821   0.0637173
  7716.73       0.219238       0.419238       0.219238       0.219238       0.035363  -0.162896
  7716.99       0.225847       0.425847       0.225847       0.225847       0.0325694   0.0490965
  7717.23       0.235011       0.435011       0.235011       0.235011       0.0477507   0.200549
  7717.46       0.255013       0.455013       0.255013       0.255013       0.059697  -0.163736
  7717.71       0.266847       0.466847       0.266847       0.266847       0.0827182   0.140979
  7717.96       0.287588       0.487588       0.287588       0.287588       0.100924       0.0797658
  7718.21       0.312549       0.512549       0.312549       0.312549       0.0813269  -0.140681
  7718.44       0.327997       0.527997       0.327997       0.327997       0.100933       0.127167
  7718.69       0.352414       0.552414       0.352414       0.352414       0.0865028   0.00989429
  7718.94       0.376516       0.576516       0.376516       0.376516       0.116577       0.230788
  7719.17       0.412967       0.612967       0.412967       0.412967       0.123211      -0.126323
  7719.42       0.444825       0.644825       0.444825       0.444825       0.146877       0.00358509
  7719.67       0.476132       0.676132       0.476132       0.476132       0.155652       0.08926
  7719.9       0.511346       0.711346       0.511346       0.511346       0.164214       0.228474
  7720.15       0.563477       0.763477       0.563477       0.563477       0.208818      -0.133565
  7720.4       0.605986       0.805986       0.605986       0.605986       0.180644      -0.0444252
  7720.65       0.646789       0.846789       0.646789       0.646789       0.175769       0.243468
  7720.88       0.699153       0.899153       0.699153       0.699153       0.206254       0.0278307
  7721.13       0.757982       0.957982       0.757982       0.757982       0.188763      -0.158172
  7721.38       0.805892        1.00589       0.805892       0.805892       0.255067       0.271025
  7721.61       0.867311        2.27759       0.867422        2.07771       0.227983      -0.195848
  7721.86       0.921263        2.24428       0.921763        2.04478       0.286771      -0.0209112
  7722.1       0.972325        2.21259       0.973202        2.01347       0.151153       0.0574388
  7722.36        1.0296        2.17991        1.03087        1.98119       0.218529      -0.147562
  7722.59        1.07381        2.1502        1.07545        1.95184       0.177279      -0.26346
  7722.85        1.10508        2.11878        1.10711        1.92081       0.121324       0.214223
  7723.05        1.14069        2.09374        1.14304        1.89609       0.174813      -0.129486
  7723.41        1.19064        2.05126        1.19354        1.85416       0.125679      -0.022391
  7723.8        1.24264        2.00542        1.24615        1.80893       0.105729      -0.152049
  7724.2        1.27114        1.96048        1.27527        1.76461       0.0320217  -0.150494
  7724.59        1.27587        1.91733        1.28061        1.72207       0.0157813  -0.061234
  7725.01        1.27086        1.87319        1.27625        1.67858      -0.03371  -0.032117
  7726.51        1.20782        1.7259        1.21554        1.53362      -0.0493198   0.000156699
  7728.07        1.14265        1.59137        1.15279        1.40151      -0.0385037   0.00827546
  7729.59        1.09813        1.47688        1.11064        1.28939      -0.0104587   0.0169869
  7731.15        1.09302        1.37676        1.10795        1.19169       0.000526661   0.00327599
  7732.68        1.0958        1.29308        1.11311        1.11039      -0.00828044  -0.00710729
  7734.21        1.08188        1.22304        1.10158        1.04274      -0.00221885  -0.00153649
  7735.77        1.06405        1.16481        1.08617       0.986931      -0.0153236   0.00554628
  7737.31        1.05982        1.11918        1.08432       0.943685      -0.00544717  -0.0109084
  7738.84        1.02982        1.08387        1.0567       0.91076      -0.0175007   0.00572301
  7740.39        1.01323        1.05763        1.04252       0.886921      -0.0143415  -0.00671103
  7741.95       0.98021        1.03935        1.01193       0.871067      -0.0243252  -0.0003188
  7746.97       0.86903        1.0228       0.908543       0.862309      -0.016369   0.00184702
  7751.94       0.804851        1.03928       0.852081       0.886505      -0.0114431   0.000989873
  7756.95       0.764877        1.0575       0.819898       0.912523      -0.000668065   0.00276039
  7761.95       0.793668        1.07217       0.856455       0.934955       0.00763886   0.001085
  7766.97       0.850004        1.08359       0.920588       0.954172       0.0112089  -1.40185e-05
  7771.99       0.906033        1.09192       0.984421       0.970305       0.0111168  -0.00116051
  7777       0.932706        1.09735        1.01888       0.983524       0.00223544  -0.00073897
  7784.15       0.938682        1.10056        1.03597       0.997842      -0.00403698  -0.000558062
  7791.28       0.916255        1.09898        1.02463        1.00735       0.000626811   0.000250282
  7798.44       0.906599        1.09322        1.02609        1.01271      -0.00314739  -0.00031373
  7805.61       0.880802        1.08388        1.01144        1.01452      -0.00340967   0.000144001
  7812.81       0.862392        1.07156        1.00421        1.01338      -0.00011063   1.16613e-05
  7819.99       0.84461        1.05694       0.997594        1.00993      -0.00373936  -3.67084e-05
  7827.22       0.824801        1.04052       0.989019        1.00474      -0.0043054   8.84368e-05
  7834.44       0.809631        1.02307       0.98506       0.998503       0.0010204  -7.49533e-05
  7841.69       0.790444        1.00511       0.977142       0.991807      -0.00176028   0.000843147
  7845.32       0.80306       0.99616       0.995398       0.988498       0.00347553   0.00144237

File: Ir0_5Hz_ReaddMean_VPhsCorrect_22_77_mV_.csv.nor
# XDI/1.0 Athena/0.9.26
# Element.edge:                  K
# Element.symbol:                Co
# Column.1:                      energy eV
# Column.2:                      norm
# Column.3:                      nbkg
# Column.4:                      flat
# Column.5:                      fbkg
# Column.6:                      nder
# Column.7:                      nsec
# Athena.e0:                     7721.54
# Athena.eshift:                 0
# Athena.rbkg:                   1.0
# Athena.importance:             1
# Athena.standard:               None
# Athena.bkg_kweight:            3
# Athena.edge_step:              1.19429
# Athena.fixed_step:             no
# Athena.pre_edge_range:         -82.964 -19.904
# Athena.pre_edge_line:          0.229424 + 0.000184789 * E
# Athena.normalization_range:    45 125.256
# Athena.post_edge_polynomial:   15.6504 - 0.00165767 * E + 0 * E^2 + 0 * E^3
# Athena.spline_range_energy:    0.000 125.180
# Athena.clamps:                 0 24
# Athena.spline_range_k:         0.000 5.732
# Athena.kweight:                2
# Athena.window:                 hanning
# Athena.phase_correction:       no
# Athena.k_range:                .4 5.35
# Athena.dk:                     .5
# Athena.r_range:                .4 5.1
# Athena.dr:                     .5
# Athena.window:                 hanning
# Athena.plot_multiplier:        1
# Athena.y_offset:               0.2
# ///
#------------------------
#   e         norm        nbkg        flat        fbkg        nder        nsec
  7600.07      -0.214051      -0.0140515  -0.214051      -0.214051       0.0120148  -0.000496776
  7624.56      -0.0484591   0.151541      -0.0484591  -0.0484591   0.00299058  -0.000204073
  7649.7      -0.014719   0.185281      -0.014719  -0.014719  -0.000303053   9.0181e-05
  7674.73       0.0753123   0.275312       0.0753123   0.0753123   0.000186212  -0.000275029
  7700.01      -0.00849795   0.191502      -0.00849795  -0.00849795   0.000335713   0.000965497
  7700.72      -0.00191076   0.198089      -0.00191076  -0.00191076   0.00472905  -0.0220456
  7701.43      -0.00603368   0.193966      -0.00603368  -0.00603368   0.0012088   0.0150143
  7702.15      -0.00232119   0.197679      -0.00232119  -0.00232119  -0.00271941  -0.0148033
  7702.88      -0.00627775   0.193722      -0.00627775  -0.00627775  -0.00385906   0.00613718
  7703.6      -0.007001   0.192999      -0.007001  -0.007001   0.00209413   0.013144
  7704.32      -0.000876654   0.199123      -0.000876654  -0.000876654   0.00402385  -0.0145521
  7705.02      -0.00234829   0.197652      -0.00234829  -0.00234829  -0.00232739   0.00270111
  7705.75      -0.00252536   0.197475      -0.00252536  -0.00252536   0.014384   0.0330581
  7706.47       0.0147467   0.214747       0.0147467   0.0147467   0.0290082   0.0103933
  7707.2       0.0375084   0.237508       0.0375084   0.0375084   0.0258111  -0.017869
  7707.91       0.0507541   0.250754       0.0507541   0.0507541   0.00697697  -0.0200558
  7708.65       0.0536212   0.253621       0.0536212   0.0536212   0.000142306  -0.0155558
  7709.29       0.0491145   0.249114       0.0491145   0.0491145   0.00158454   0.0233552
  7709.9       0.0536152   0.253615       0.0536152   0.0536152  -0.0039182  -0.0372238
  7710.51       0.0441138   0.244114       0.0441138   0.0441138  -0.00995891   0.0199744
  7711.11       0.0421381   0.242138       0.0421381   0.0421381   0.0060451   0.0116627
  7711.73       0.044353   0.244353       0.044353   0.044353  -0.008135  -0.0118763
  7712.33       0.0421092   0.242109       0.0421092   0.0421092  -0.00696297   0.0122625
  7712.95       0.0444969   0.244497       0.0444969   0.0444969   0.0155033   0.0315481
  7713.54       0.057657   0.257657       0.057657   0.057657   0.0429213   0.0595077
  7714.16       0.0945833   0.294583       0.0945833   0.0945833   0.0784558   0.0176344
  7714.78       0.137797       0.337797       0.137797       0.137797       0.0442393  -0.0546199
  7715.39       0.160329       0.360329       0.160329       0.160329       0.0500277   0.0162677
  7715.97       0.187662       0.387662       0.187662       0.187662       0.0173565  -0.0590075
  7716.26       0.193064       0.393064       0.193064       0.193064       0.0342423   0.104531
  7716.5       0.203588       0.403588       0.203588       0.203588       0.0797807   0.106511
  7716.73       0.219986       0.419986       0.219986       0.219986       0.0353765  -0.187437
  7716.99       0.22605       0.42605       0.22605       0.22605       0.0316311   0.0749154
  7717.23       0.236171       0.436171       0.236171       0.236171       0.0460173   0.177677
  7717.46       0.255763       0.455763       0.255763       0.255763       0.0582433  -0.142412
  7717.71       0.268433       0.468433       0.268433       0.268433       0.0851057   0.12777
  7717.96       0.289191       0.48919       0.28919       0.28919       0.104981       0.0643803
  7718.21       0.31329       0.51329       0.31329       0.31329       0.078043  -0.134291
  7718.44       0.328297       0.528297       0.328297       0.328297       0.101387       0.145019
  7718.69       0.353342       0.553342       0.353342       0.353342       0.091049   0.0231071
  7718.94       0.378796       0.578796       0.378796       0.378796       0.113039       0.172328
  7719.17       0.413133       0.613133       0.413133       0.413133       0.122215      -0.0572309
  7719.42       0.446925       0.646925       0.446925       0.446925       0.152657      -0.0040163
  7719.67       0.479679       0.679679       0.479679       0.479679       0.155936       0.04049
  7719.9       0.513376       0.713376       0.513376       0.513376       0.15979       0.267573
  7720.15       0.566307       0.766307       0.566307       0.566307       0.207272      -0.146693
  7720.4       0.60884       0.80884       0.60884       0.60884       0.183131      -0.0504661
  7720.65       0.649295       0.849295       0.649295       0.649295       0.173393       0.222144
  7720.88       0.70009       0.90009       0.70009       0.70009       0.212999       0.0645101
  7721.13       0.75951       0.95951       0.75951       0.75951       0.184561      -0.164393
  7721.38       0.807637        1.00764       0.807637       0.807637       0.25398       0.25902
  7721.61       0.868549        2.27667       0.86866        2.07678       0.230013      -0.206197
  7721.86       0.921327        2.24342       0.921824        2.04391       0.288846       0.0291636
  7722.1       0.97404        2.21178       0.97491        2.01265       0.144104       0.0553907
  7722.36        1.03291        2.17916        1.03417        1.98042       0.222009      -0.195826
  7722.59        1.07574        2.1495        1.07736        1.95112       0.175861      -0.243836
  7722.85        1.10673        2.11812        1.10874        1.92014       0.119912       0.20204
  7723.05        1.14153        2.09313        1.14386        1.89546       0.173994      -0.119054
  7723.41        1.19103        2.05072        1.1939        1.8536       0.125396      -0.0109216
  7723.8        1.24428        2.00495        1.24776        1.80844       0.106532      -0.163938
  7724.2        1.27217        1.96009        1.27627        1.76419       0.0275471  -0.150617
  7724.59        1.27627        1.91701        1.28098        1.72172       0.0221953  -0.0690045
  7725.01        1.26933        1.87294        1.27468        1.67829      -0.034814  -0.0258921
  7726.51        1.20806        1.72588        1.21572        1.53355      -0.0494988  -0.000595539
  7728.07        1.14287        1.59155        1.15294        1.40162      -0.0388798   0.00866269
  7729.59        1.09923        1.47724        1.11166        1.28966      -0.0102108   0.016405
  7731.15        1.09365        1.37725        1.10847        1.19207       0.00155781   0.00332169
  7732.68        1.09607        1.29368        1.11325        1.11086      -0.00915768  -0.00700944
  7734.21        1.08202        1.22372        1.10157        1.04327      -0.00241763  -0.00101868
  7735.77        1.06529        1.16554        1.08725       0.987504      -0.0152411   0.0048678
  7737.31        1.06052        1.11995        1.08485       0.944274      -0.00503896  -0.0106286
  7738.84        1.03064        1.08465        1.05734       0.911346      -0.016613   0.00544531
  7740.39        1.01352        1.05841        1.0426       0.887488      -0.0152664  -0.00629431
  7741.95       0.980966        1.04011        1.01246       0.871599      -0.0245559  -0.000376466
  7746.97       0.870321        1.02344       0.909551       0.862668      -0.0162688   0.00178612
  7751.94       0.805159        1.03977       0.85205       0.886664      -0.0115553   0.00105033
  7756.95       0.76571        1.0579       0.820336       0.912523      -0.000627778   0.00269781
  7761.95       0.793467        1.07251       0.855804       0.934845       0.00769767   0.00118118
  7766.97       0.851197        1.08392       0.921275       0.953995       0.0112462  -0.000100013
  7771.99       0.906464        1.09227       0.98429       0.970097       0.0111163  -0.00116406
  7777       0.932288        1.09776        1.01784       0.983317       0.0022832  -0.000712887
  7784.15       0.938185        1.10109        1.03477       0.997678      -0.0039695  -0.000529551
  7791.28       0.917129        1.09967        1.02472        1.00726       0.000504464   0.000239955
  7798.44       0.908319        1.09409        1.02695        1.01272      -0.00314579  -0.000347174
  7805.61       0.881653        1.08492        1.01136        1.01462      -0.0034938   0.000168175
  7812.81       0.863623        1.07275        1.00443        1.01355       0.000128068   7.09371e-06
  7819.99       0.845984        1.05824       0.997872        1.01013      -0.00377322  -2.80346e-05
  7827.22       0.826773        1.04189       0.989813        1.00493      -0.00430673   6.59129e-05
  7834.44       0.811027        1.02443       0.985198       0.998597       0.00104349  -7.94967e-05
  7841.69       0.791023        1.00636       0.976382       0.991717      -0.00187518   0.000864582
  7845.32       0.803795       0.997316       0.994754       0.988275       0.00351849   0.00148586