Folder: Xray-Project/Dynamic XAS/Dynamic XAS Energy analyzed data/ESweep_0_5 Hz/Same Eo/Normalized Spectra (part 4)

File: Ir0_5Hz_ReaddMean_VPhsCorrect_7_202_mV_.csv.nor
# XDI/1.0 Athena/0.9.26
# Element.edge:                  K
# Element.symbol:                Co
# Column.1:                      energy eV
# Column.2:                      norm
# Column.3:                      nbkg
# Column.4:                      flat
# Column.5:                      fbkg
# Column.6:                      nder
# Column.7:                      nsec
# Athena.e0:                     7721.54
# Athena.eshift:                 0
# Athena.rbkg:                   1.0
# Athena.importance:             1
# Athena.standard:               None
# Athena.bkg_kweight:            3
# Athena.edge_step:              1.19308
# Athena.fixed_step:             no
# Athena.pre_edge_range:         -82.964 -19.904
# Athena.pre_edge_line:          0.256586 + 0.000181271 * E
# Athena.normalization_range:    45 125.256
# Athena.post_edge_polynomial:   15.5511 - 0.00164498 * E + 0 * E^2 + 0 * E^3
# Athena.spline_range_energy:    0.000 125.180
# Athena.clamps:                 0 24
# Athena.spline_range_k:         0.000 5.732
# Athena.kweight:                2
# Athena.window:                 hanning
# Athena.phase_correction:       no
# Athena.k_range:                .4 5.35
# Athena.dk:                     .5
# Athena.r_range:                .4 5.1
# Athena.dr:                     .5
# Athena.window:                 hanning
# Athena.plot_multiplier:        1
# Athena.y_offset:               0.2
# ///
#------------------------
#   e         norm        nbkg        flat        fbkg        nder        nsec
  7600.07      -0.216104      -0.0161035  -0.216104      -0.216104       0.0123156  -0.000515931
  7624.56      -0.0481053   0.151895      -0.0481053  -0.0481053   0.00296228  -0.000208724
  7649.7      -0.0150006   0.184999      -0.0150006  -0.0150006  -0.000390044   9.51817e-05
  7674.73       0.0775276   0.277528       0.0775276   0.0775276   0.000264727  -0.000283411
  7700.01      -0.00908602   0.190914      -0.00908602  -0.00908602   0.000350434   0.00102813
  7700.72      -0.00199765   0.198002      -0.00199765  -0.00199765   0.00424996  -0.0248589
  7701.43      -0.00698902   0.193011      -0.00698902  -0.00698902   0.00188984   0.0193594
  7702.15      -0.0018747   0.198125      -0.0018747  -0.0018747  -0.0040179  -0.0194997
  7702.88      -0.00686157   0.193138      -0.00686157  -0.00686157  -0.00287711   0.00916423
  7703.6      -0.00702419   0.192976      -0.00702419  -0.00702419   0.00350969   0.0107615
  7704.32      -0.001578   0.198422      -0.001578  -0.001578   0.00478337  -0.012046
  7705.02      -0.00243523   0.197565      -0.00243523  -0.00243523  -0.00548938   0.00240613
  7705.75      -0.00211708   0.197883      -0.00211708  -0.00211708   0.0168936   0.031902
  7706.47       0.0150353   0.215035       0.0150353   0.0150353   0.0296358   0.0122901
  7707.2       0.0386655   0.238666       0.0386655   0.0386655   0.0256654  -0.0213573
  7707.91       0.0509518   0.250952       0.0509518   0.0509518   0.00464376  -0.0179237
  7708.65       0.0539702   0.25397       0.0539702   0.0539702  -0.000215729  -0.0158662
  7709.29       0.0494564   0.249456       0.0494564   0.0494564   0.00245185   0.0205333
  7709.9       0.0528883   0.252888       0.0528883   0.0528883  -0.00463926  -0.028
  7710.51       0.0457876   0.245788       0.0457876   0.0457876  -0.00967842   0.0128117
  7711.11       0.0435419   0.243542       0.0435419   0.0435419   0.00860478   0.0182053
  7711.73       0.0478702   0.24787       0.0478702   0.0478702  -0.00494796  -0.0162346
  7712.33       0.0460846   0.246085       0.0460846   0.0460846  -0.00955796   0.0105247
  7712.95       0.0482768   0.248277       0.0482768   0.0482768   0.0214998   0.0384968
  7713.54       0.063655   0.263655       0.063655   0.063655   0.0433512   0.0567848
  7714.16       0.101895       0.301895       0.101895       0.101895       0.0722622   0.00214109
  7714.78       0.140519       0.340519       0.140519       0.140519       0.0497016  -0.0340337
  7715.39       0.166124       0.366124       0.166124       0.166124       0.0485214  -0.000149566
  7715.97       0.190709       0.390709       0.190709       0.190709       0.0265868  -0.036847
  7716.26       0.197712       0.397712       0.197712       0.197712       0.0162966   0.0699552
  7716.5       0.207676       0.407676       0.207676       0.207676       0.0777251   0.105671
  7716.73       0.223488       0.423488       0.223488       0.223488       0.0574623  -0.0581342
  7716.99       0.237057       0.437057       0.237057       0.237057       0.0419427  -0.0380462
  7717.23       0.247913       0.447913       0.247913       0.247913       0.0398611   0.119808
  7717.46       0.264891       0.464891       0.264891       0.264891       0.069957  -0.157191
  7717.71       0.273845       0.473845       0.273845       0.273845       0.0848471   0.311211
  7717.96       0.302321       0.502321       0.302321       0.302321       0.0837666  -0.127977
  7718.21       0.323037       0.523037       0.323037       0.323037       0.109157       0.0328998
  7718.44       0.344791       0.544791       0.344791       0.344791       0.06078  -0.0863065
  7718.69       0.36279       0.56279       0.36279       0.36279       0.104923       0.261014
  7718.94       0.394861       0.594861       0.394861       0.394861       0.10817       0.0163621
  7719.17       0.426434       0.626434       0.426434       0.426434       0.132049      -0.0660162
  7719.42       0.456685       0.656685       0.456685       0.456685       0.186473       0.154374
  7719.67       0.495178       0.695178       0.495178       0.495178       0.124226       0.0166357
  7719.9       0.53294       0.73294       0.53294       0.53294       0.155974       0.0988054
  7720.15       0.579743       0.779743       0.579743       0.579743       0.224016       0.0212567
  7720.4       0.625899       0.825899       0.625899       0.625899       0.166767      -0.0805235
  7720.65       0.668203       0.868203       0.668203       0.668203       0.171235       0.196431
  7720.88       0.719231       0.919231       0.719231       0.719231       0.236976      -0.119969
  7721.13       0.767331       0.967331       0.767331       0.767331       0.194066       0.0052771
  7721.38       0.814218        1.01422       0.814218       0.814218       0.212922       0.268531
  7721.61       0.87452        2.2626       0.874631        2.06271       0.257436      -0.073401
  7721.86       0.934745        2.22978       0.935237        2.03027       0.258618      -0.136736
  7722.1       0.985431        2.19855       0.986294        1.99941       0.156867      -0.0244872
  7722.36        1.03706        2.16635        1.03832        1.9676       0.218584      -0.0132608
  7722.59        1.08404        2.13708        1.08566        1.93869       0.15156      -0.447686
  7722.85        1.10688        2.10611        1.10887        1.90811       0.121785       0.412723
  7723.05        1.14517        2.08144        1.14749        1.88375       0.16266      -0.238583
  7723.41        1.18989        2.03958        1.19275        1.84244       0.119545       0.00238695
  7723.8        1.2399        1.99441        1.24336        1.79787       0.100751      -0.163484
  7724.2        1.26457        1.95013        1.26864        1.7542       0.0224017  -0.138391
  7724.59        1.26741        1.90761        1.27208        1.71228       0.0139386  -0.0325198
  7725.01        1.26509        1.86411        1.2704        1.66942      -0.0315887  -0.0375338
  7726.51        1.20418        1.71896        1.21178        1.52657      -0.0469318   0.000658853
  7728.07        1.14245        1.58637        1.15244        1.39636      -0.0360536   0.00693183
  7729.59        1.09816        1.47353        1.11049        1.28586      -0.0107836   0.0171868
  7731.15        1.09377        1.37484        1.10848        1.18954      -0.00119947   0.00294135
  7732.68        1.09645        1.29234        1.1135        1.10939      -0.00742878  -0.00681781
  7734.21        1.08312        1.22328        1.10252        1.04268      -0.000935988  -0.00259731
  7735.77        1.06334        1.16585        1.08513       0.987635      -0.0169215   0.00662216
  7737.31        1.05978        1.12083        1.08392       0.944965      -0.00491184  -0.01135
  7738.84        1.0294        1.08598        1.05589       0.912462      -0.0167345   0.00642042
  7740.39        1.01409        1.06006        1.04294       0.888912      -0.0151949  -0.00812172
  7741.95       0.978959        1.04198        1.0102       0.873228      -0.0245699   0.00027536
  7746.97       0.870807        1.02548       0.909731       0.864407      -0.0156673   0.0017986
  7751.94       0.808423        1.04157       0.854949       0.888094      -0.0112042   0.000935369
  7756.95       0.768895        1.05943       0.823096       0.913631      -0.000762274   0.00263696
  7761.95       0.795062        1.07384       0.856913       0.935689       0.00774467   0.00113211
  7766.97       0.849953        1.08509       0.919485       0.954625       0.0111305   0.000131537
  7771.99       0.908188        1.09334       0.985407       0.970557       0.0104712  -0.00130922
  7777       0.933316        1.09876        1.0182       0.983647       0.00219807  -0.000670256
  7784.15       0.940072        1.10204        1.03591       0.997878      -0.00382855  -0.00056445
  7791.28       0.918098        1.10063        1.02485        1.00738       0.000780162   0.000240373
  7798.44       0.908388        1.09509        1.02609        1.01279      -0.00345193  -0.000316859
  7805.61       0.882377        1.08598        1.01107        1.01467      -0.00328805   0.000178938
  7812.81       0.865559        1.07387        1.00526        1.01358       0.000158672  -5.00846e-05
  7819.99       0.846182        1.05941       0.996885        1.01011      -0.00376114   4.35351e-05
  7827.22       0.82896        1.04307       0.990729        1.00483      -0.00439685   9.99432e-06
  7834.44       0.812291        1.02557       0.985104       0.998379       0.000966184  -4.46956e-05
  7841.69       0.793188        1.00739       0.977101       0.991305      -0.00175366   0.000816113
  7845.32       0.805134       0.998265       0.994603       0.987735       0.0032908   0.00138966

File: Ir0_5Hz_ReaddMean_VPhsCorrect_8_219_mV_.csv.nor
# XDI/1.0 Athena/0.9.26
# Element.edge:                  K
# Element.symbol:                Co
# Column.1:                      energy eV
# Column.2:                      norm
# Column.3:                      nbkg
# Column.4:                      flat
# Column.5:                      fbkg
# Column.6:                      nder
# Column.7:                      nsec
# Athena.e0:                     7721.54
# Athena.eshift:                 0
# Athena.rbkg:                   1.0
# Athena.importance:             1
# Athena.standard:               None
# Athena.bkg_kweight:            3
# Athena.edge_step:              1.1926
# Athena.fixed_step:             no
# Athena.pre_edge_range:         -82.964 -19.904
# Athena.pre_edge_line:          0.218679 + 0.000186215 * E
# Athena.normalization_range:    45 125.256
# Athena.post_edge_polynomial:   15.5038 - 0.00163888 * E + 0 * E^2 + 0 * E^3
# Athena.spline_range_energy:    0.000 125.180
# Athena.clamps:                 0 24
# Athena.spline_range_k:         0.000 5.732
# Athena.kweight:                2
# Athena.window:                 hanning
# Athena.phase_correction:       no
# Athena.k_range:                .4 5.35
# Athena.dk:                     .5
# Athena.r_range:                .4 5.1
# Athena.dr:                     .5
# Athena.window:                 hanning
# Athena.plot_multiplier:        1
# Athena.y_offset:               0.2
# ///
#------------------------
#   e         norm        nbkg        flat        fbkg        nder        nsec
  7600.07      -0.215903      -0.0159028  -0.215903      -0.215903       0.0122385  -0.000510296
  7624.56      -0.0483332   0.151667      -0.0483332  -0.0483332   0.00298816  -0.000207333
  7649.7      -0.0147395   0.185261      -0.0147395  -0.0147395  -0.000395811   9.33171e-05
  7674.73       0.0771087   0.277109       0.0771087   0.0771087   0.00025433  -0.000281455
  7700.01      -0.00894912   0.191051      -0.00894912  -0.00894912   0.000399858   0.00101112
  7700.72      -0.00200258   0.197997      -0.00200258  -0.00200258   0.0034511  -0.0238476
  7701.43      -0.00664311   0.193357      -0.00664311  -0.00664311   0.00211387   0.0177033
  7702.15      -0.00204313   0.197957      -0.00204313  -0.00204313  -0.004317  -0.0186498
  7702.88      -0.00710526   0.192895      -0.00710526  -0.00710526  -0.00321931   0.00992502
  7703.6      -0.00694404   0.193056      -0.00694404  -0.00694404   0.00306117   0.0104312
  7704.32      -0.00134441   0.198656      -0.00134441  -0.00134441   0.00635755  -0.0136233
  7705.02      -0.00285042   0.19715      -0.00285042  -0.00285042  -0.00637162   0.00353856
  7705.75      -0.00263986   0.19736      -0.00263986  -0.00263986   0.0182787   0.0332104
  7706.47       0.0150965   0.215097       0.0150965   0.0150965   0.0270048   0.0106883
  7707.2       0.0384781   0.238478       0.0384781   0.0384781   0.0278639  -0.0199675
  7707.91       0.0512433   0.251243       0.0512433   0.0512433   0.0044771  -0.0197517
  7708.65       0.0537826   0.253783       0.0537826   0.0537826  -0.000496345  -0.0152197
  7709.29       0.0491389   0.249139       0.0491389   0.0491389   0.00301744   0.0223195
  7709.9       0.0531195   0.25312       0.0531195   0.0531195  -0.0062463  -0.0318977
  7710.51       0.0451011   0.245101       0.0451011   0.0451011  -0.00805577   0.0176891
  7711.11       0.0437362   0.243736       0.0437362   0.0437362   0.00831868   0.0133781
  7711.73       0.0472133   0.247213       0.0472133   0.0472133  -0.00447941  -0.0146794
  7712.33       0.0451686   0.245169       0.0451686   0.0451686  -0.0130656   0.0112781
  7712.95       0.0473839   0.247384       0.0473839   0.0473839   0.022022   0.0393692
  7713.54       0.0630854   0.263085       0.0630854   0.0630854   0.0428795   0.0548228
  7714.16       0.100914       0.300914       0.100914       0.100914       0.0740748   0.00473857
  7714.78       0.140119       0.340119       0.140119       0.140119       0.0485703  -0.0390436
  7715.39       0.164446       0.364446       0.164446       0.164446       0.0469767   0.00208907
  7715.97       0.18858       0.38858       0.18858       0.18858       0.0281747  -0.0258227
  7716.26       0.196822       0.396822       0.196822       0.196822       0.0207193   0.0500202
  7716.5       0.206735       0.406735       0.206735       0.206735       0.0697835   0.0873709
  7716.73       0.221415       0.421415       0.221415       0.221415       0.0588928  -0.0128743
  7716.99       0.236602       0.436602       0.236602       0.236602       0.0417776  -0.0931374
  7717.23       0.245853       0.445853       0.245853       0.245853       0.0435292   0.151803
  7717.46       0.263156       0.463156       0.263156       0.263156       0.0674454  -0.171096
  7717.71       0.271626       0.471626       0.271626       0.271626       0.0863373   0.328164
  7717.96       0.300675       0.500675       0.300675       0.300675       0.0789394  -0.135402
  7718.21       0.321531       0.521531       0.321531       0.321531       0.107956       0.0172049
  7718.44       0.342481       0.542481       0.342481       0.342481       0.0581756  -0.0603869
  7718.69       0.361219       0.561219       0.361219       0.361219       0.106665       0.218734
  7718.94       0.391619       0.591619       0.391619       0.391619       0.114398       0.0738367
  7719.17       0.424943       0.624943       0.424943       0.424943       0.129127      -0.126833
  7719.42       0.453373       0.653373       0.453373       0.453373       0.183169       0.172591
  7719.67       0.491145       0.691145       0.491145       0.491145       0.12527       0.0585864
  7719.9       0.530712       0.730712       0.530712       0.530712       0.159317       0.0360873
  7720.15       0.575556       0.775556       0.575556       0.575556       0.225353       0.0789208
  7720.4       0.623095       0.823095       0.623095       0.623095       0.157387      -0.106061
  7720.65       0.665232       0.865232       0.665232       0.665232       0.172756       0.22781
  7720.88       0.717932       0.917932       0.717932       0.717932       0.236957      -0.165928
  7721.13       0.764971       0.964971       0.764971       0.764971       0.198423       0.0237969
  7721.38       0.811893        1.01189       0.811893       0.811893       0.212473       0.283073
  7721.61       0.873088        2.26653       0.873199        2.06664       0.26074      -0.0872967
  7721.86       0.933423        2.23361       0.933916        2.0341       0.256645      -0.138781
  7722.1       0.984103        2.20228       0.984966        2.00314       0.15891      -0.0134151
  7722.36        1.03644        2.16998        1.03769        1.97123       0.221453      -0.0612768
  7722.59        1.08121        2.14061        1.08282        1.94222       0.156168      -0.337424
  7722.85        1.1085        2.10954        1.1105        1.91154       0.119853       0.298451
  7723.05        1.14493        2.08479        1.14725        1.8871       0.165461      -0.197369
  7723.41        1.19015        2.0428        1.19301        1.84566       0.120742       0.00104683
  7723.8        1.2405        1.99748        1.24396        1.80094       0.103972      -0.1613
  7724.2        1.26587        1.95306        1.26994        1.75712       0.0202495  -0.143191
  7724.59        1.26865        1.9104        1.27332        1.71507       0.0175806  -0.0267366
  7725.01        1.26721        1.86676        1.27251        1.67207      -0.0328253  -0.0409122
  7726.51        1.20473        1.72115        1.21234        1.52875      -0.047648   0.0014175
  7728.07        1.14325        1.58813        1.15324        1.39812      -0.0373859   0.00642469
  7729.59        1.09802        1.47493        1.11035        1.28725      -0.0090028   0.0182645
  7731.15        1.09522        1.37591        1.10992        1.19061      -0.00117943   0.00175517
  7732.68        1.09665        1.29315        1.11369        1.11019      -0.00749553  -0.00587663
  7734.21        1.08426        1.22387        1.10366        1.04326      -0.00153158  -0.0032339
  7735.77        1.06392        1.16625        1.08571       0.988031      -0.0166652   0.00733114
  7737.31        1.06151        1.12108        1.08564       0.945216      -0.00500643  -0.0123835
  7738.84        1.02984        1.08612        1.05632       0.9126      -0.0165284   0.00714348
  7740.39        1.01495        1.06012        1.04379       0.888965      -0.0150506  -0.00855931
  7741.95       0.979184        1.04198        1.01042       0.873221      -0.0246945   0.000407604
  7746.97       0.871183        1.02542       0.910098       0.864339      -0.0157953   0.00176901
  7751.94       0.808213        1.04155       0.854728       0.888067      -0.0109999   0.000950851
  7756.95       0.768482        1.05946       0.82267       0.913647      -0.00104892   0.00262669
  7761.95       0.794191        1.0739       0.856028       0.935732       0.0078961   0.00119035
  7766.97       0.850096        1.08517       0.919612       0.954683       0.0108704   7.52079e-05
  7771.99       0.907931        1.09342       0.985132       0.970622       0.0107033  -0.001287
  7777       0.933221        1.09884        1.01809       0.983708       0.00231481  -0.000651921
  7784.15       0.941003        1.10211        1.03682       0.997925      -0.00391277  -0.000600966
  7791.28       0.918196        1.10068        1.02493        1.00741       0.000641939   0.000246592
  7798.44       0.90797        1.09512        1.02565        1.0128      -0.00327568  -0.000273557
  7805.61       0.883663        1.08599        1.01233        1.01466      -0.00339905   0.000120172
  7812.81       0.865514        1.07388        1.00519        1.01356       5.9489e-05  -2.14065e-05
  7819.99       0.846287        1.05943       0.996956        1.0101      -0.00357271   3.84093e-05
  7827.22       0.828948        1.04312       0.99068        1.00485      -0.00441264   2.09084e-05
  7834.44       0.81273        1.02568       0.985503       0.998457       0.000892094  -6.62871e-05
  7841.69       0.792946        1.00761       0.976817       0.991478      -0.00169258   0.000842965
  7845.32       0.805258       0.998544       0.994684       0.987971       0.00339179   0.00140066